time,AccelerometerX,AccelerometerY,AccelerometerZ,LinearX,LinearY,LinearZ,GyroX,GyroY,GyroZ
0.026,0.1945,0.6,0.8302,-0.031706478,0.006442815,0.223993763,-0.105407715,-0.553656697,-0.003194173
0.026,0.2671,0.6002,0.8058,-0.031706478,0.006442815,0.223993763,-0.105407715,-0.553656697,-0.003194173
0.026,0.3294,0.5873,0.7835,-0.031706478,0.006442815,0.223993763,-0.105407715,-0.553656697,-0.003194173
0.026,0.348,0.576,0.7662,-0.031706478,0.006442815,0.223993763,-0.105407715,-0.553656697,-0.003194173
0.026,0.348,0.576,0.7662,-0.031706478,0.006442815,0.223993763,-0.139478892,-0.670776367,0.006388347
0.026,0.348,0.576,0.7662,-0.031706478,0.006442815,0.223993763,-0.174614802,-0.780443013,0.020229764
0.027,0.348,0.576,0.7662,-0.031706478,0.006442815,0.223993763,-0.196974009,-0.833679199,0.050042048
0.027,0.348,0.576,0.7662,-0.031706478,0.006442815,0.223993763,-0.208685979,-0.794284403,0.079854332
0.027,0.348,0.576,0.7662,-0.031706478,0.006442815,0.223993763,-0.21081543,-0.678229451,0.073465981
0.027,0.348,0.576,0.7662,-0.031706478,0.006442815,0.223993763,-0.200168192,-0.53342694,0.021294488
0.027,0.348,0.576,0.7662,-0.031706478,0.006442815,0.223993763,-0.17780897,-0.387559682,-0.031941731
0.027,0.348,0.576,0.7662,-0.031706478,0.006442815,0.223993763,-0.150126144,-0.24808079,-0.050042048
0.027,0.348,0.576,0.7662,-0.031706478,0.006442815,0.223993763,-0.150126144,-0.24808079,-0.050042048
0.028,0.348,0.576,0.7662,-0.116301179,0.409192532,0.230371311,-0.150126144,-0.24808079,-0.050042048
0.064,0.348,0.576,0.7662,-0.116301179,0.409192532,0.230371311,-0.150126144,-0.24808079,-0.050042048
0.096,0.3429,0.5601,0.7508,-0.116301179,0.409192532,0.230371311,-0.150126144,-0.24808079,-0.050042048
0.096,0.2867,0.5704,0.7654,-0.116301179,0.409192532,0.230371311,-0.150126144,-0.24808079,-0.050042048
0.096,0.2439,0.5511,0.794,-0.116301179,0.409192532,0.230371311,-0.150126144,-0.24808079,-0.050042048
0.096,0.2437,0.5418,0.7803,-0.116301179,0.409192532,0.230371311,-0.150126144,-0.24808079,-0.050042048
0.096,0.2437,0.5418,0.7803,-0.116301179,0.409192532,0.230371311,-0.125637487,-0.107537165,-0.034071181
0.096,0.2437,0.5418,0.7803,-0.116301179,0.409192532,0.230371311,-0.095825195,0.043653701,-0.012776693
0.097,0.2437,0.5418,0.7803,-0.116301179,0.409192532,0.230371311,-0.051106773,0.194844559,-0.001064724
0.097,0.2437,0.5418,0.7803,-0.116301179,0.409192532,0.230371311,-0.067077637,0.220397949,0.001064724
0.116,0.2437,0.5418,0.7803,-0.116301179,0.409192532,0.230371311,-0.052171495,0.198038742,-0.035135906
0.117,0.2437,0.5418,0.7803,-0.116301179,0.409192532,0.230371311,-0.018100316,0.153320313,-0.060689293
0.117,0.2437,0.5418,0.7803,-0.116301179,0.409192532,0.230371311,-0.012776693,0.063883461,-0.060689293
0.117,0.2437,0.5418,0.7803,-0.116301179,0.409192532,0.230371311,-0.015970865,-0.015970865,-0.037265353
0.117,0.2437,0.5418,0.7803,-0.116301179,0.409192532,0.230371311,-0.015970865,-0.015970865,-0.037265353
0.117,0.2437,0.5418,0.7803,0.150555238,0.187774748,-0.242852479,-0.015970865,-0.015970865,-0.037265353
0.117,0.2437,0.5418,0.7803,0.150555238,0.187774748,-0.242852479,-0.015970865,-0.015970865,-0.037265353
0.176,0.2576,0.5501,0.7706,0.150555238,0.187774748,-0.242852479,-0.015970865,-0.015970865,-0.037265353
0.177,0.272,0.5604,0.7842,0.150555238,0.187774748,-0.242852479,-0.015970865,-0.015970865,-0.037265353
0.177,0.2747,0.5509,0.8028,0.150555238,0.187774748,-0.242852479,-0.015970865,-0.015970865,-0.037265353
0.177,0.2781,0.557,0.795,0.150555238,0.187774748,-0.242852479,-0.015970865,-0.015970865,-0.037265353
0.177,0.2781,0.557,0.795,0.150555238,0.187774748,-0.242852479,-0.01703559,-0.048977323,-0.005323622
0.178,0.2781,0.557,0.795,0.150555238,0.187774748,-0.242852479,-0.020229764,-0.05323622,0.00958252
0.178,0.2781,0.557,0.795,0.150555238,0.187774748,-0.242852479,-0.019165039,-0.05323622,0.01703559
0.178,0.2781,0.557,0.795,0.150555238,0.187774748,-0.242852479,-0.015970865,-0.057495117,0.010647244
0.178,0.2781,0.557,0.795,0.150555238,0.187774748,-0.242852479,-0.013841418,-0.081983782,0
0.179,0.2781,0.557,0.795,0.150555238,0.187774748,-0.242852479,-0.012776693,-0.12031386,-0.012776693
0.179,0.2781,0.557,0.795,0.150555238,0.187774748,-0.242852479,-0.012776693,-0.139478892,-0.021294488
0.179,0.2781,0.557,0.795,0.150555238,0.187774748,-0.242852479,-0.01703559,-0.136284724,-0.021294488
0.181,0.2781,0.557,0.795,0.150555238,0.187774748,-0.242852479,-0.01703559,-0.136284724,-0.021294488
0.181,0.2781,0.557,0.795,-0.069949418,0.101803787,-0.071330659,-0.01703559,-0.136284724,-0.021294488
0.249,0.2781,0.557,0.795,-0.069949418,0.101803787,-0.071330659,-0.01703559,-0.136284724,-0.021294488
0.255,0.2876,0.568,0.7972,-0.069949418,0.101803787,-0.071330659,-0.01703559,-0.136284724,-0.021294488
0.255,0.3111,0.5614,0.7989,-0.069949418,0.101803787,-0.071330659,-0.01703559,-0.136284724,-0.021294488
0.256,0.3148,0.5623,0.7877,-0.069949418,0.101803787,-0.071330659,-0.01703559,-0.136284724,-0.021294488
0.256,0.3038,0.5672,0.7877,-0.069949418,0.101803787,-0.071330659,-0.01703559,-0.136284724,-0.021294488
0.256,0.3038,0.5672,0.7877,-0.069949418,0.101803787,-0.071330659,-0.023423936,-0.11818441,-0.015970865
0.256,0.3038,0.5672,0.7877,-0.069949418,0.101803787,-0.071330659,-0.025553387,-0.108601891,-0.008517795
0.257,0.3038,0.5672,0.7877,-0.069949418,0.101803787,-0.071330659,-0.02661811,-0.097954646,-0.005323622
0.257,0.3038,0.5672,0.7877,-0.069949418,0.101803787,-0.071330659,-0.021294488,-0.068142362,-0.001064724
0.259,0.3038,0.5672,0.7877,-0.069949418,0.101803787,-0.071330659,-0.015970865,-0.01703559,0
0.26,0.3038,0.5672,0.7877,-0.069949418,0.101803787,-0.071330659,-0.015970865,0.036200631,-0.001064724
0.26,0.3038,0.5672,0.7877,-0.069949418,0.101803787,-0.071330659,-0.013841418,0.081983782,0.001064724
0.26,0.3038,0.5672,0.7877,-0.069949418,0.101803787,-0.071330659,-0.01703559,0.11605496,0.002129449
0.26,0.3038,0.5672,0.7877,-0.069949418,0.101803787,-0.071330659,-0.01703559,0.11605496,0.002129449
0.261,0.3038,0.5672,0.7877,0.244623899,0.141400024,0.104538329,-0.01703559,0.11605496,0.002129449
0.316,0.3038,0.5672,0.7877,0.244623899,0.141400024,0.104538329,-0.01703559,0.11605496,0.002129449
0.335,0.2766,0.5599,0.8006,0.244623899,0.141400024,0.104538329,-0.01703559,0.11605496,0.002129449
0.336,0.2578,0.5509,0.8053,0.244623899,0.141400024,0.104538329,-0.01703559,0.11605496,0.002129449
0.336,0.2732,0.5619,0.7918,0.244623899,0.141400024,0.104538329,-0.01703559,0.11605496,0.002129449
0.336,0.2955,0.5719,0.785,0.244623899,0.141400024,0.104538329,-0.01703559,0.11605496,0.002129449
0.336,0.2955,0.5719,0.785,0.244623899,0.141400024,0.104538329,-0.024488661,0.11818441,-0.003194173
0.337,0.2955,0.5719,0.785,0.244623899,0.141400024,0.104538329,-0.027682835,0.091566302,-0.00958252
0.337,0.2955,0.5719,0.785,0.244623899,0.141400024,0.104538329,-0.021294488,0.048977323,-0.015970865
0.337,0.2955,0.5719,0.785,0.244623899,0.141400024,0.104538329,-0.019165039,0.007453071,-0.015970865
0.337,0.2955,0.5719,0.785,0.244623899,0.141400024,0.104538329,-0.019165039,-0.01703559,-0.007453071
0.338,0.2955,0.5719,0.785,0.244623899,0.141400024,0.104538329,-0.019165039,-0.015970865,0.008517795
0.338,0.2955,0.5719,0.785,0.244623899,0.141400024,0.104538329,-0.024488661,0,0.018100316
0.338,0.2955,0.5719,0.785,0.244623899,0.141400024,0.104538329,-0.028747559,0.021294488,0.018100316
0.338,0.2955,0.5719,0.785,0.244623899,0.141400024,0.104538329,-0.028747559,0.021294488,0.018100316
0.338,0.2955,0.5719,0.785,-0.197628513,0.04949538,0.143740237,-0.028747559,0.021294488,0.018100316
0.416,0.2859,0.5543,0.793,-0.197628513,0.04949538,0.143740237,-0.028747559,0.021294488,0.018100316
0.416,0.2627,0.5413,0.7996,-0.197628513,0.04949538,0.143740237,-0.028747559,0.021294488,0.018100316
0.416,0.2635,0.5506,0.7935,-0.197628513,0.04949538,0.143740237,-0.028747559,0.021294488,0.018100316
0.416,0.2776,0.5538,0.7928,-0.197628513,0.04949538,0.143740237,-0.028747559,0.021294488,0.018100316
0.417,0.2776,0.5538,0.7928,-0.197628513,0.04949538,0.143740237,-0.031941731,0.031941731,0.005323622
0.417,0.2776,0.5538,0.7928,-0.197628513,0.04949538,0.143740237,-0.031941731,0.02661811,-0.013841418
0.417,0.2776,0.5538,0.7928,-0.197628513,0.04949538,0.143740237,-0.028747559,0.002129449,-0.031941731
0.418,0.2776,0.5538,0.7928,-0.197628513,0.04949538,0.143740237,-0.025553387,-0.023423936,-0.036200631
0.418,0.2776,0.5538,0.7928,-0.197628513,0.04949538,0.143740237,-0.025553387,-0.036200631,-0.033006456
0.418,0.2776,0.5538,0.7928,-0.197628513,0.04949538,0.143740237,-0.02661811,-0.050042048,-0.029812284
0.419,0.2776,0.5538,0.7928,-0.197628513,0.04949538,0.143740237,-0.024488661,-0.069207087,-0.031941731
0.419,0.2776,0.5538,0.7928,-0.197628513,0.04949538,0.143740237,-0.019165039,-0.079854332,-0.036200631
0.419,0.2776,0.5538,0.7928,-0.197628513,0.04949538,0.143740237,-0.019165039,-0.079854332,-0.036200631
0.419,0.2776,0.5538,0.7928,-0.146955192,-0.029013097,0.076723963,-0.019165039,-0.079854332,-0.036200631
0.451,0.2776,0.5538,0.7928,-0.146955192,-0.029013097,0.076723963,-0.019165039,-0.079854332,-0.036200631
0.495,0.2813,0.5582,0.7842,-0.146955192,-0.029013097,0.076723963,-0.019165039,-0.079854332,-0.036200631
0.496,0.2801,0.5504,0.7896,-0.146955192,-0.029013097,0.076723963,-0.019165039,-0.079854332,-0.036200631
0.496,0.2732,0.5472,0.7847,-0.146955192,-0.029013097,0.076723963,-0.019165039,-0.079854332,-0.036200631
0.496,0.2679,0.5533,0.7811,-0.146955192,-0.029013097,0.076723963,-0.019165039,-0.079854332,-0.036200631
0.497,0.2679,0.5533,0.7811,-0.146955192,-0.029013097,0.076723963,-0.018100316,-0.073465981,-0.038330078
0.497,0.2679,0.5533,0.7811,-0.146955192,-0.029013097,0.076723963,-0.015970865,-0.066012911,-0.043653701
0.497,0.2679,0.5533,0.7811,-0.146955192,-0.029013097,0.076723963,-0.011711968,-0.064948186,-0.05536567
0.497,0.2679,0.5533,0.7811,-0.146955192,-0.029013097,0.076723963,-0.004258898,-0.068142362,-0.070271812
0.498,0.2679,0.5533,0.7811,-0.146955192,-0.029013097,0.076723963,0.002129449,-0.072401263,-0.078789607
0.498,0.2679,0.5533,0.7811,-0.146955192,-0.029013097,0.076723963,0.005323622,-0.079854332,-0.076660156
0.498,0.2679,0.5533,0.7811,-0.146955192,-0.029013097,0.076723963,0.007453071,-0.088372126,-0.070271812
0.499,0.2679,0.5533,0.7811,-0.146955192,-0.029013097,0.076723963,0.012776693,-0.097954646,-0.067077637
0.499,0.2679,0.5533,0.7811,-0.146955192,-0.029013097,0.076723963,0.012776693,-0.097954646,-0.067077637
0.499,0.2679,0.5533,0.7811,-0.011051814,0.056549754,-0.013455771,0.012776693,-0.097954646,-0.067077637
0.519,0.2679,0.5533,0.7811,-0.011051814,0.056549754,-0.013455771,0.012776693,-0.097954646,-0.067077637
0.574,0.2774,0.5641,0.7845,-0.011051814,0.056549754,-0.013455771,0.012776693,-0.097954646,-0.067077637
0.574,0.2872,0.5697,0.782,-0.011051814,0.056549754,-0.013455771,0.012776693,-0.097954646,-0.067077637
0.574,0.2935,0.5699,0.7828,-0.011051814,0.056549754,-0.013455771,0.012776693,-0.097954646,-0.067077637
0.574,0.2928,0.5579,0.7884,-0.011051814,0.056549754,-0.013455771,0.012776693,-0.097954646,-0.067077637
0.592,0.2928,0.5579,0.7884,-0.011051814,0.056549754,-0.013455771,0.015970865,-0.107537165,-0.063883461
0.592,0.2928,0.5579,0.7884,-0.011051814,0.056549754,-0.013455771,0.018100316,-0.105407715,-0.058559842
0.593,0.2928,0.5579,0.7884,-0.011051814,0.056549754,-0.013455771,0.018100316,-0.097954646,-0.057495117
0.593,0.2928,0.5579,0.7884,-0.011051814,0.056549754,-0.013455771,0.021294488,-0.0830485,-0.05536567
0.593,0.2928,0.5579,0.7884,-0.011051814,0.056549754,-0.013455771,0.025553387,-0.070271812,-0.05536567
0.593,0.2928,0.5579,0.7884,-0.011051814,0.056549754,-0.013455771,0.02661811,-0.058559842,-0.057495117
0.594,0.2928,0.5579,0.7884,-0.011051814,0.056549754,-0.013455771,0.024488661,-0.052171495,-0.063883461
0.594,0.2928,0.5579,0.7884,-0.011051814,0.056549754,-0.013455771,0.019165039,-0.059624568,-0.077724881
0.594,0.2928,0.5579,0.7884,-0.011051814,0.056549754,-0.013455771,0.019165039,-0.059624568,-0.077724881
0.616,0.2928,0.5579,0.7884,0.028947407,0.219527528,-0.059765138,0.019165039,-0.059624568,-0.077724881
0.656,0.2742,0.5614,0.795,0.028947407,0.219527528,-0.059765138,0.019165039,-0.059624568,-0.077724881
0.657,0.2693,0.5658,0.795,0.028947407,0.219527528,-0.059765138,0.019165039,-0.059624568,-0.077724881
0.657,0.2757,0.5601,0.796,0.028947407,0.219527528,-0.059765138,0.019165039,-0.059624568,-0.077724881
0.657,0.2881,0.5655,0.7894,0.028947407,0.219527528,-0.059765138,0.019165039,-0.059624568,-0.077724881
0.657,0.2881,0.5655,0.7894,0.028947407,0.219527528,-0.059765138,0.019165039,-0.073465981,-0.085177951
0.794,0.2881,0.5655,0.7894,0.028947407,0.219527528,-0.059765138,0.018100316,-0.088372126,-0.079854332
0.794,0.2881,0.5655,0.7894,0.028947407,0.219527528,-0.059765138,0.007453071,-0.11818441,-0.072401263
0.795,0.2881,0.5655,0.7894,0.028947407,0.219527528,-0.059765138,-0.006388347,-0.173550084,-0.074530706
0.795,0.2881,0.5655,0.7894,0.028947407,0.219527528,-0.059765138,-0.021294488,-0.243821889,-0.071336538
0.795,0.2881,0.5655,0.7894,0.028947407,0.219527528,-0.059765138,-0.038330078,-0.320482045,-0.062818743
0.795,0.2881,0.5655,0.7894,0.028947407,0.219527528,-0.059765138,-0.060689293,-0.401401103,-0.048977323
0.795,0.2881,0.5655,0.7894,0.028947407,0.219527528,-0.059765138,-0.0830485,-0.474867076,-0.028747559
0.796,0.2881,0.5655,0.7894,0.028947407,0.219527528,-0.059765138,-0.0830485,-0.474867076,-0.028747559
0.796,0.2881,0.5655,0.7894,0.028947407,0.219527528,-0.059765138,-0.0830485,-0.474867076,-0.028747559
0.796,0.2881,0.5655,0.7894,-0.152925998,0.144941255,0.092836171,-0.0830485,-0.474867076,-0.028747559
0.796,0.2881,0.5655,0.7894,-0.152925998,0.144941255,0.092836171,-0.0830485,-0.474867076,-0.028747559
0.796,0.3138,0.5623,0.7767,-0.152925998,0.144941255,0.092836171,-0.0830485,-0.474867076,-0.028747559
0.796,0.3358,0.5499,0.7632,-0.152925998,0.144941255,0.092836171,-0.0830485,-0.474867076,-0.028747559
0.796,0.3226,0.5462,0.7591,-0.152925998,0.144941255,0.092836171,-0.0830485,-0.474867076,-0.028747559
0.796,0.2994,0.544,0.7669,-0.152925998,0.144941255,0.092836171,-0.0830485,-0.474867076,-0.028747559
0.796,0.2994,0.544,0.7669,-0.152925998,0.144941255,0.092836171,-0.093695745,-0.513197184,-0.012776693
0.797,0.2994,0.544,0.7669,-0.152925998,0.144941255,0.092836171,-0.088372126,-0.499355733,0.001064724
0.797,0.2994,0.544,0.7669,-0.152925998,0.144941255,0.092836171,-0.087307401,-0.465284556,0.004258898
0.797,0.2994,0.544,0.7669,-0.152925998,0.144941255,0.092836171,-0.086242676,-0.420566142,-0.002129449
0.797,0.2994,0.544,0.7669,-0.152925998,0.144941255,0.092836171,-0.085177951,-0.372653544,-0.003194173
0.797,0.2994,0.544,0.7669,-0.152925998,0.144941255,0.092836171,-0.084113225,-0.324740946,0.003194173
0.797,0.2994,0.544,0.7669,-0.152925998,0.144941255,0.092836171,-0.084113225,-0.27150473,0.00958252
0.797,0.2994,0.544,0.7669,-0.152925998,0.144941255,0.092836171,-0.075595431,-0.23636882,0.010647244
0.797,0.2994,0.544,0.7669,-0.152925998,0.144941255,0.092836171,-0.075595431,-0.23636882,0.010647244
0.798,0.2994,0.544,0.7669,0.219822466,0.051135752,-0.130770817,-0.075595431,-0.23636882,0.010647244
0.812,0.2984,0.5347,0.7762,0.219822466,0.051135752,-0.130770817,-0.075595431,-0.23636882,0.010647244
0.812,0.2969,0.532,0.7627,0.219822466,0.051135752,-0.130770817,-0.075595431,-0.23636882,0.010647244
0.812,0.2984,0.5191,0.763,0.219822466,0.051135752,-0.130770817,-0.075595431,-0.23636882,0.010647244
0.812,0.3033,0.5157,0.7564,0.219822466,0.051135752,-0.130770817,-0.075595431,-0.23636882,0.010647244
0.812,0.3033,0.5157,0.7564,0.219822466,0.051135752,-0.130770817,-0.059624568,-0.229980469,0.004258898
0.812,0.3033,0.5157,0.7564,0.219822466,0.051135752,-0.130770817,-0.046847872,-0.242757171,-0.006388347
0.812,0.3033,0.5157,0.7564,0.219822466,0.051135752,-0.130770817,-0.040459529,-0.270440012,-0.00958252
0.813,0.3033,0.5157,0.7564,0.219822466,0.051135752,-0.130770817,-0.036200631,-0.307705343,-0.011711968
0.813,0.3033,0.5157,0.7564,0.219822466,0.051135752,-0.130770817,-0.025553387,-0.335388184,-0.031941731
0.813,0.3033,0.5157,0.7564,0.219822466,0.051135752,-0.130770817,-0.002129449,-0.357747406,-0.063883461
0.813,0.3033,0.5157,0.7564,0.219822466,0.051135752,-0.130770817,0.02661811,-0.369459361,-0.099019371
0.813,0.3033,0.5157,0.7564,0.219822466,0.051135752,-0.130770817,0.050042048,-0.368394643,-0.130961105
0.815,0.3033,0.5157,0.7564,0.219822466,0.051135752,-0.130770817,0.050042048,-0.368394643,-0.130961105
0.816,0.3033,0.5157,0.7564,-0.298605829,-0.10119918,-0.098366059,0.050042048,-0.368394643,-0.130961105
0.848,0.3033,0.5157,0.7564,-0.298605829,-0.10119918,-0.098366059,0.050042048,-0.368394643,-0.130961105
0.891,0.2982,0.5237,0.7297,-0.298605829,-0.10119918,-0.098366059,0.050042048,-0.368394643,-0.130961105
0.891,0.2864,0.532,0.7231,-0.298605829,-0.10119918,-0.098366059,0.050042048,-0.368394643,-0.130961105
0.891,0.2754,0.524,0.7258,-0.298605829,-0.10119918,-0.098366059,0.050042048,-0.368394643,-0.130961105
0.891,0.22,0.5513,0.7075,-0.298605829,-0.10119918,-0.098366059,0.050042048,-0.368394643,-0.130961105
0.892,0.22,0.5513,0.7075,-0.298605829,-0.10119918,-0.098366059,0.069207087,-0.347100168,-0.156514481
0.892,0.22,0.5513,0.7075,-0.298605829,-0.10119918,-0.098366059,0.091566302,-0.305575907,-0.163967565
0.892,0.22,0.5513,0.7075,-0.298605829,-0.10119918,-0.098366059,0.122443303,-0.254469126,-0.165032282
0.892,0.22,0.5513,0.7075,-0.298605829,-0.10119918,-0.098366059,0.160773382,-0.21294488,-0.185262039
0.893,0.22,0.5513,0.7075,-0.298605829,-0.10119918,-0.098366059,0.211880162,-0.17780897,-0.238498271
0.893,0.22,0.5513,0.7075,-0.298605829,-0.10119918,-0.098366059,0.284281403,-0.142673075,-0.350294322
0.893,0.22,0.5513,0.7075,-0.298605829,-0.10119918,-0.098366059,0.348164886,-0.152255595,-0.469543457
0.893,0.22,0.5513,0.7075,-0.298605829,-0.10119918,-0.098366059,0.375847727,-0.23636882,-0.52916801
0.894,0.22,0.5513,0.7075,-0.298605829,-0.10119918,-0.098366059,0.375847727,-0.23636882,-0.52916801
0.895,0.22,0.5513,0.7075,-0.534442425,-0.177618504,-0.386330038,0.375847727,-0.23636882,-0.52916801
0.916,0.22,0.5513,0.7075,-0.534442425,-0.177618504,-0.386330038,0.375847727,-0.23636882,-0.52916801
0.971,0.1689,0.5433,0.699,-0.534442425,-0.177618504,-0.386330038,0.375847727,-0.23636882,-0.52916801
0.971,0.1769,0.5096,0.7288,-0.534442425,-0.177618504,-0.386330038,0.375847727,-0.23636882,-0.52916801
0.971,0.2168,0.5396,0.7009,-0.534442425,-0.177618504,-0.386330038,0.375847727,-0.23636882,-0.52916801
0.972,0.22,0.5707,0.6489,-0.534442425,-0.177618504,-0.386330038,0.375847727,-0.23636882,-0.52916801
0.972,0.22,0.5707,0.6489,-0.534442425,-0.177618504,-0.386330038,0.390753865,-0.352423787,-0.560045063
0.972,0.22,0.5707,0.6489,-0.534442425,-0.177618504,-0.386330038,0.409918904,-0.498291016,-0.581339538
0.973,0.22,0.5707,0.6489,-0.534442425,-0.177618504,-0.386330038,0.443990082,-0.670776367,-0.614345968
0.973,0.22,0.5707,0.6489,-0.534442425,-0.177618504,-0.386330038,0.487643778,-0.846455932,-0.672905803
0.973,0.22,0.5707,0.6489,-0.534442425,-0.177618504,-0.386330038,0.522779703,-0.999776244,-0.747436523
0.974,0.22,0.5707,0.6489,-0.534442425,-0.177618504,-0.386330038,0.549397767,-1.120090127,-0.827290893
0.974,0.22,0.5707,0.6489,-0.534442425,-0.177618504,-0.386330038,0.571757019,-1.204203248,-0.893303752
0.974,0.22,0.5707,0.6489,-0.534442425,-0.177618504,-0.386330038,0.58985734,-1.271280885,-0.935892761
0.974,0.22,0.5707,0.6489,-0.534442425,-0.177618504,-0.386330038,0.58985734,-1.271280885,-0.935892761
0.975,0.22,0.5707,0.6489,-1.622183323,-0.714491606,-0.095250405,0.58985734,-1.271280885,-0.935892761
1.051,0.22,0.5707,0.6489,-1.622183323,-0.714491606,-0.095250405,0.58985734,-1.271280885,-0.935892761
1.057,0.2151,0.5748,0.6259,-1.622183323,-0.714491606,-0.095250405,0.58985734,-1.271280885,-0.935892761
1.057,0.2507,0.6146,0.6244,-1.622183323,-0.714491606,-0.095250405,0.58985734,-1.271280885,-0.935892761
1.057,0.3118,0.6743,0.5958,-1.622183323,-0.714491606,-0.095250405,0.58985734,-1.271280885,-0.935892761
1.058,0.3571,0.6381,0.5841,-1.622183323,-0.714491606,-0.095250405,0.58985734,-1.271280885,-0.935892761
1.058,0.3571,0.6381,0.5841,-1.622183323,-0.714491606,-0.095250405,0.605828166,-1.347941041,-0.960381389
1.058,0.3571,0.6381,0.5841,-1.622183323,-0.714491606,-0.095250405,0.628187418,-1.452284098,-0.971028686
1.058,0.3571,0.6381,0.5841,-1.622183323,-0.714491606,-0.095250405,0.657999694,-1.585374594,-0.971028686
1.059,0.3571,0.6381,0.5841,-1.622183323,-0.714491606,-0.095250405,0.687811971,-1.720594645,-0.973158121
1.059,0.3571,0.6381,0.5841,-1.622183323,-0.714491606,-0.095250405,0.696329772,-1.828131795,-0.976352274
1.059,0.3571,0.6381,0.5841,-1.622183323,-0.714491606,-0.095250405,0.685682535,-1.890950561,-0.993387878
1.059,0.3571,0.6381,0.5841,-1.622183323,-0.714491606,-0.095250405,0.672905803,-1.920762777,-1.026394367
1.06,0.3571,0.6381,0.5841,-1.622183323,-0.714491606,-0.095250405,0.657999694,-1.934604287,-1.06259501
1.06,0.3571,0.6381,0.5841,-1.622183323,-0.714491606,-0.095250405,0.657999694,-1.934604287,-1.06259501
1.06,0.3571,0.6381,0.5841,-1.191073298,-0.288109869,-0.442149073,0.657999694,-1.934604287,-1.06259501
1.115,0.3571,0.6381,0.5841,-1.191073298,-0.288109869,-0.442149073,0.657999694,-1.934604287,-1.06259501
1.132,0.3742,0.5694,0.5968,-1.191073298,-0.288109869,-0.442149073,0.657999694,-1.934604287,-1.06259501
1.133,0.4311,0.61,0.5746,-1.191073298,-0.288109869,-0.442149073,0.657999694,-1.934604287,-1.06259501
1.133,0.5137,0.6792,0.5364,-1.191073298,-0.288109869,-0.442149073,0.657999694,-1.934604287,-1.06259501
1.133,0.5733,0.7029,0.5313,-1.191073298,-0.288109869,-0.442149073,0.657999694,-1.934604287,-1.06259501
1.133,0.5733,0.7029,0.5313,-1.191073298,-0.288109869,-0.442149073,0.66012913,-1.966545939,-1.079630494
1.134,0.5733,0.7029,0.5313,-1.191073298,-0.288109869,-0.442149073,0.675035298,-2.022976398,-1.072177529
1.134,0.5733,0.7029,0.5313,-1.191073298,-0.288109869,-0.442149073,0.689941406,-2.05065918,-1.055141926
1.134,0.5733,0.7029,0.5313,-1.191073298,-0.288109869,-0.442149073,0.701653361,-2.012329102,-1.032782674
1.134,0.5733,0.7029,0.5313,-1.191073298,-0.288109869,-0.442149073,0.721883118,-1.925021768,-1.01574707
1.135,0.5733,0.7029,0.5313,-1.191073298,-0.288109869,-0.442149073,0.742112935,-1.801513672,-1.024264932
1.135,0.5733,0.7029,0.5313,-1.191073298,-0.288109869,-0.442149073,0.752760172,-1.642869711,-1.073242188
1.135,0.5733,0.7029,0.5313,-1.191073298,-0.288109869,-0.442149073,0.760213196,-1.47464335,-1.15629065
1.136,0.5733,0.7029,0.5313,-1.191073298,-0.288109869,-0.442149073,0.760213196,-1.47464335,-1.15629065
1.136,0.5733,0.7029,0.5313,0.214791283,-0.953696966,0.016701646,0.760213196,-1.47464335,-1.15629065
1.211,0.5191,0.7041,0.5337,0.214791283,-0.953696966,0.016701646,0.760213196,-1.47464335,-1.15629065
1.38,0.4626,0.7916,0.4939,0.214791283,-0.953696966,0.016701646,0.760213196,-1.47464335,-1.15629065
1.38,0.5078,0.9077,0.459,0.214791283,-0.953696966,0.016701646,0.760213196,-1.47464335,-1.15629065
1.38,0.5482,0.8874,0.4685,0.214791283,-0.953696966,0.016701646,0.760213196,-1.47464335,-1.15629065
1.38,0.5482,0.8874,0.4685,0.214791283,-0.953696966,0.016701646,0.772989929,-1.323452473,-1.241468668
1.38,0.5482,0.8874,0.4685,0.214791283,-0.953696966,0.016701646,0.810255289,-1.229756713,-1.294704914
1.38,0.5482,0.8874,0.4685,0.214791283,-0.953696966,0.016701646,0.860297322,-1.192491293,-1.293640137
1.38,0.5482,0.8874,0.4685,0.214791283,-0.953696966,0.016701646,0.890109599,-1.162679076,-1.24998641
1.38,0.5482,0.8874,0.4685,0.214791283,-0.953696966,0.016701646,0.897562683,-1.098795533,-1.190361857
1.38,0.5482,0.8874,0.4685,0.214791283,-0.953696966,0.016701646,0.885850728,-1.005099893,-1.145643473
1.381,0.5482,0.8874,0.4685,0.214791283,-0.953696966,0.016701646,0.847520649,-0.90820992,-1.141384602
1.381,0.5482,0.8874,0.4685,0.214791283,-0.953696966,0.016701646,0.798543274,-0.82835561,-1.182908773
1.381,0.5482,0.8874,0.4685,0.214791283,-0.953696966,0.016701646,0.798543274,-0.82835561,-1.182908773
1.381,0.5482,0.8874,0.4685,0.6099962,0.196659863,0.150817558,0.798543274,-0.82835561,-1.182908773
1.381,0.5482,0.8874,0.4685,0.6099962,0.196659863,0.150817558,0.798543274,-0.82835561,-1.182908773
1.381,0.5061,0.8202,0.5169,0.6099962,0.196659863,0.150817558,0.798543274,-0.82835561,-1.182908773
1.381,0.4128,0.7943,0.4956,0.6099962,0.196659863,0.150817558,0.798543274,-0.82835561,-1.182908773
1.381,0.3866,0.8532,0.4597,0.6099962,0.196659863,0.150817558,0.798543274,-0.82835561,-1.182908773
1.382,0.4768,0.9746,0.4333,0.6099962,0.196659863,0.150817558,0.798543274,-0.82835561,-1.182908773
1.382,0.4768,0.9746,0.4333,0.6099962,0.196659863,0.150817558,0.766601563,-0.762342691,-1.246792316
1.382,0.4768,0.9746,0.4333,0.6099962,0.196659863,0.150817558,0.758083761,-0.702718079,-1.306416869
1.382,0.4768,0.9746,0.4333,0.6099962,0.196659863,0.150817558,0.754889607,-0.645222962,-1.341552734
1.382,0.4768,0.9746,0.4333,0.6099962,0.196659863,0.150817558,0.750630677,-0.599439859,-1.333034992
1.382,0.4768,0.9746,0.4333,0.6099962,0.196659863,0.150817558,0.748501241,-0.578145325,-1.284057617
1.382,0.4768,0.9746,0.4333,0.6099962,0.196659863,0.150817558,0.743177652,-0.579210103,-1.208462238
1.382,0.4768,0.9746,0.4333,0.6099962,0.196659863,0.150817558,0.728271484,-0.578145325,-1.127543092
1.382,0.4768,0.9746,0.4333,0.6099962,0.196659863,0.150817558,0.702718079,-0.544074178,-1.068983316
1.383,0.4768,0.9746,0.4333,0.6099962,0.196659863,0.150817558,0.702718079,-0.544074178,-1.068983316
1.383,0.4768,0.9746,0.4333,0.560945094,-0.454311937,0.90767473,0.702718079,-0.544074178,-1.068983316
1.383,0.4768,0.9746,0.4333,0.560945094,-0.454311937,0.90767473,0.702718079,-0.544074178,-1.068983316
1.383,0.5577,0.9981,0.3908,0.560945094,-0.454311937,0.90767473,0.702718079,-0.544074178,-1.068983316
1.383,0.5601,0.9881,0.3847,0.560945094,-0.454311937,0.90767473,0.702718079,-0.544074178,-1.068983316
1.383,0.5289,1.0027,0.3768,0.560945094,-0.454311937,0.90767473,0.702718079,-0.544074178,-1.068983316
1.383,0.4785,1.002,0.3644,0.560945094,-0.454311937,0.90767473,0.702718079,-0.544074178,-1.068983316
1.383,0.4785,1.002,0.3644,0.560945094,-0.454311937,0.90767473,0.67397052,-0.467414021,-1.051947713
1.383,0.4785,1.002,0.3644,0.560945094,-0.454311937,0.90767473,0.648417175,-0.371588826,-1.071112752
1.384,0.4785,1.002,0.3644,0.560945094,-0.454311937,0.90767473,0.637769938,-0.27150473,-1.099860311
1.384,0.4785,1.002,0.3644,0.560945094,-0.454311937,0.90767473,0.639899373,-0.163967565,-1.115831137
1.384,0.4785,1.002,0.3644,0.560945094,-0.454311937,0.90767473,0.637769938,-0.057495117,-1.113701701
1.384,0.4785,1.002,0.3644,0.560945094,-0.454311937,0.90767473,0.6271227,0.039394803,-1.090277791
1.384,0.4785,1.002,0.3644,0.560945094,-0.454311937,0.90767473,0.617540181,0.128831655,-1.046624064
1.384,0.4785,1.002,0.3644,0.560945094,-0.454311937,0.90767473,0.617540181,0.214009613,-0.981675923
1.384,0.4785,1.002,0.3644,0.560945094,-0.454311937,0.90767473,0.617540181,0.214009613,-0.981675923
1.384,0.4785,1.002,0.3644,2.629677534,0.920696914,0.427671313,0.617540181,0.214009613,-0.981675923
1.447,0.4785,1.002,0.3644,2.629677534,0.920696914,0.427671313,0.617540181,0.214009613,-0.981675923
1.449,0.4419,1.0157,0.3595,2.629677534,0.920696914,0.427671313,0.617540181,0.214009613,-0.981675923
1.45,0.415,1.0198,0.35,2.629677534,0.920696914,0.427671313,0.617540181,0.214009613,-0.981675923
1.45,0.3563,0.9954,0.3561,2.629677534,0.920696914,0.427671313,0.617540181,0.214009613,-0.981675923
1.45,0.2876,0.9815,0.3695,2.629677534,0.920696914,0.427671313,0.617540181,0.214009613,-0.981675923
1.45,0.2876,0.9815,0.3695,2.629677534,0.920696914,0.427671313,0.626057923,0.300252289,-0.901821554
1.451,0.2876,0.9815,0.3695,2.629677534,0.920696914,0.427671313,0.631381571,0.384365499,-0.819837809
1.451,0.2876,0.9815,0.3695,2.629677534,0.920696914,0.427671313,0.628187418,0.470608175,-0.754889607
1.451,0.2876,0.9815,0.3695,2.629677534,0.920696914,0.427671313,0.615410686,0.568562806,-0.704847574
1.452,0.2876,0.9815,0.3695,2.629677534,0.920696914,0.427671313,0.605828166,0.678229451,-0.664388001
1.452,0.2876,0.9815,0.3695,2.629677534,0.920696914,0.427671313,0.602634013,0.770860493,-0.626057923
1.452,0.2876,0.9815,0.3695,2.629677534,0.920696914,0.427671313,0.597310364,0.846455932,-0.572821736
1.452,0.2876,0.9815,0.3695,2.629677534,0.920696914,0.427671313,0.584533691,0.90820992,-0.5057441
1.453,0.2876,0.9815,0.3695,2.629677534,0.920696914,0.427671313,0.584533691,0.90820992,-0.5057441
1.453,0.2876,0.9815,0.3695,1.857486129,0.823789477,0.507567048,0.584533691,0.90820992,-0.5057441
1.515,0.2876,0.9815,0.3695,1.857486129,0.823789477,0.507567048,0.584533691,0.90820992,-0.5057441
1.529,0.2432,0.9824,0.3654,1.857486129,0.823789477,0.507567048,0.584533691,0.90820992,-0.5057441
1.529,0.227,0.9996,0.3439,1.857486129,0.823789477,0.507567048,0.584533691,0.90820992,-0.5057441
1.529,0.24,0.9895,0.3309,1.857486129,0.823789477,0.507567048,0.584533691,0.90820992,-0.5057441
1.53,0.2263,0.9536,0.3209,1.857486129,0.823789477,0.507567048,0.584533691,0.90820992,-0.5057441
1.53,0.2263,0.9536,0.3209,1.857486129,0.823789477,0.507567048,0.570692301,0.946539998,-0.437601745
1.53,0.2263,0.9536,0.3209,1.857486129,0.823789477,0.507567048,0.557915568,0.963575602,-0.367329925
1.53,0.2263,0.9536,0.3209,1.857486129,0.823789477,0.507567048,0.546203613,0.972093403,-0.292799205
1.531,0.2263,0.9536,0.3209,1.857486129,0.823789477,0.507567048,0.537685812,0.982740641,-0.221462682
1.531,0.2263,0.9536,0.3209,1.857486129,0.823789477,0.507567048,0.536621094,0.991258442,-0.166097
1.531,0.2263,0.9536,0.3209,1.857486129,0.823789477,0.507567048,0.539815247,0.986999512,-0.135220006
1.531,0.2263,0.9536,0.3209,1.857486129,0.823789477,0.507567048,0.548333049,0.965705037,-0.12031386
1.532,0.2263,0.9536,0.3209,1.857486129,0.823789477,0.507567048,0.560045063,0.925245523,-0.105407715
1.532,0.2263,0.9536,0.3209,1.857486129,0.823789477,0.507567048,0.560045063,0.925245523,-0.105407715
1.532,0.2263,0.9536,0.3209,0.687202752,0.457847863,0.696650863,0.560045063,0.925245523,-0.105407715
1.609,0.2217,0.9436,0.2984,0.687202752,0.457847863,0.696650863,0.560045063,0.925245523,-0.105407715
1.609,0.2481,0.9433,0.2764,0.687202752,0.457847863,0.696650863,0.560045063,0.925245523,-0.105407715
1.61,0.2769,0.9521,0.2461,0.687202752,0.457847863,0.696650863,0.560045063,0.925245523,-0.105407715
1.61,0.3209,0.9678,0.2197,0.687202752,0.457847863,0.696650863,0.560045063,0.925245523,-0.105407715
1.61,0.3209,0.9678,0.2197,0.687202752,0.457847863,0.696650863,0.581339538,0.878397644,-0.081983782
1.61,0.3209,0.9678,0.2197,0.687202752,0.457847863,0.696650863,0.607957661,0.831549764,-0.058559842
1.61,0.3209,0.9678,0.2197,0.687202752,0.457847863,0.696650863,0.633511007,0.787896037,-0.046847872
1.611,0.3209,0.9678,0.2197,0.687202752,0.457847863,0.696650863,0.662258565,0.750630677,-0.043653701
1.611,0.3209,0.9678,0.2197,0.687202752,0.457847863,0.696650863,0.686747253,0.736789286,-0.046847872
1.611,0.3209,0.9678,0.2197,0.687202752,0.457847863,0.696650863,0.696329772,0.752760172,-0.056430392
1.611,0.3209,0.9678,0.2197,0.687202752,0.457847863,0.696650863,0.691006124,0.794284403,-0.070271812
1.611,0.3209,0.9678,0.2197,0.687202752,0.457847863,0.696650863,0.665452778,0.854973674,-0.096889921
1.613,0.3209,0.9678,0.2197,0.687202752,0.457847863,0.696650863,0.665452778,0.854973674,-0.096889921
1.614,0.3209,0.9678,0.2197,1.138889074,-0.160842746,0.312148809,0.665452778,0.854973674,-0.096889921
1.647,0.3209,0.9678,0.2197,1.138889074,-0.160842746,0.312148809,0.665452778,0.854973674,-0.096889921
1.69,0.3705,0.9646,0.2068,1.138889074,-0.160842746,0.312148809,0.665452778,0.854973674,-0.096889921
1.69,0.38,0.9514,0.1984,1.138889074,-0.160842746,0.312148809,0.665452778,0.854973674,-0.096889921
1.691,0.3717,0.9727,0.1547,1.138889074,-0.160842746,0.312148809,0.665452778,0.854973674,-0.096889921
1.692,0.3803,0.9981,0.1019,1.138889074,-0.160842746,0.312148809,0.665452778,0.854973674,-0.096889921
1.693,0.3803,0.9981,0.1019,1.138889074,-0.160842746,0.312148809,0.6271227,0.929504395,-0.149061412
1.693,0.3803,0.9981,0.1019,1.138889074,-0.160842746,0.312148809,0.590922058,1.017876506,-0.21294488
1.694,0.3803,0.9981,0.1019,1.138889074,-0.160842746,0.312148809,0.560045063,1.121154785,-0.273634166
1.694,0.3803,0.9981,0.1019,1.138889074,-0.160842746,0.312148809,0.537685812,1.235080361,-0.320482045
1.696,0.3803,0.9981,0.1019,1.138889074,-0.160842746,0.312148809,0.51958549,1.366041422,-0.340711802
1.697,0.3803,0.9981,0.1019,1.138889074,-0.160842746,0.312148809,0.499355733,1.512973428,-0.328999847
1.697,0.3803,0.9981,0.1019,1.138889074,-0.160842746,0.312148809,0.473802358,1.678005695,-0.305575907
1.698,0.3803,0.9981,0.1019,1.138889074,-0.160842746,0.312148809,0.442925364,1.854749918,-0.287475586
1.9,0.3803,0.9981,0.1019,1.138889074,-0.160842746,0.312148809,0.442925364,1.854749918,-0.287475586
1.9,0.3803,0.9981,0.1019,2.563288927,-0.155183613,-0.128013834,0.442925364,1.854749918,-0.287475586
1.9,0.3803,0.9981,0.1019,2.563288927,-0.155183613,-0.128013834,0.442925364,1.854749918,-0.287475586
1.9,0.3546,0.9959,0.0616,2.563288927,-0.155183613,-0.128013834,0.442925364,1.854749918,-0.287475586
1.9,0.2825,0.9949,0.0078,2.563288927,-0.155183613,-0.128013834,0.442925364,1.854749918,-0.287475586
1.901,0.207,1.0355,-0.0332,2.563288927,-0.155183613,-0.128013834,0.442925364,1.854749918,-0.287475586
1.901,0.153,1.0841,-0.0662,2.563288927,-0.155183613,-0.128013834,0.442925364,1.854749918,-0.287475586
1.901,0.153,1.0841,-0.0662,2.563288927,-0.155183613,-0.128013834,0.407789439,2.030429363,-0.267245829
1.901,0.153,1.0841,-0.0662,2.563288927,-0.155183613,-0.128013834,0.375847727,2.210367918,-0.241692439
1.901,0.153,1.0841,-0.0662,2.563288927,-0.155183613,-0.128013834,0.343905985,2.395629883,-0.21294488
1.901,0.153,1.0841,-0.0662,2.563288927,-0.155183613,-0.128013834,0.315158427,2.577697754,-0.169291183
1.901,0.153,1.0841,-0.0662,2.563288927,-0.155183613,-0.128013834,0.289605051,2.746989012,-0.091566302
1.902,0.153,1.0841,-0.0662,2.563288927,-0.155183613,-0.128013834,0.27150473,2.900309324,0.007453071
1.902,0.153,1.0841,-0.0662,2.563288927,-0.155183613,-0.128013834,0.253404409,3.044047117,0.12031386
1.902,0.153,1.0841,-0.0662,2.563288927,-0.155183613,-0.128013834,0.238498271,3.175008059,0.239562988
1.902,0.153,1.0841,-0.0662,2.563288927,-0.155183613,-0.128013834,0.238498271,3.175008059,0.239562988
1.902,0.153,1.0841,-0.0662,1.801606417,0.267922282,-1.789820075,0.238498271,3.175008059,0.239562988
1.902,0.121,1.1044,-0.0838,1.801606417,0.267922282,-1.789820075,0.238498271,3.175008059,0.239562988
1.902,0.0848,1.1066,-0.0789,1.801606417,0.267922282,-1.789820075,0.238498271,3.175008059,0.239562988
1.903,0.0472,1.091,-0.0733,1.801606417,0.267922282,-1.789820075,0.238498271,3.175008059,0.239562988
1.903,0.0073,1.0807,-0.0626,1.801606417,0.267922282,-1.789820075,0.238498271,3.175008059,0.239562988
1.903,0.0073,1.0807,-0.0626,1.801606417,0.267922282,-1.789820075,0.229980469,3.282545328,0.349229604
1.903,0.0073,1.0807,-0.0626,1.801606417,0.267922282,-1.789820075,0.226786301,3.350687742,0.440795898
1.903,0.0073,1.0807,-0.0626,1.801606417,0.267922282,-1.789820075,0.229980469,3.36559391,0.515326619
1.903,0.0073,1.0807,-0.0626,1.801606417,0.267922282,-1.789820075,0.235304087,3.33365202,0.570692301
1.903,0.0073,1.0807,-0.0626,1.801606417,0.267922282,-1.789820075,0.243821889,3.276156902,0.607957661
1.903,0.0073,1.0807,-0.0626,1.801606417,0.267922282,-1.789820075,0.254469126,3.198432207,0.634575725
1.904,0.0073,1.0807,-0.0626,1.801606417,0.267922282,-1.789820075,0.269375265,3.106865883,0.666517496
1.904,0.0073,1.0807,-0.0626,1.801606417,0.267922282,-1.789820075,0.283216685,2.99613452,0.708041728
1.904,0.0073,1.0807,-0.0626,1.801606417,0.267922282,-1.789820075,0.283216685,2.99613452,0.708041728
1.904,0.0073,1.0807,-0.0626,0.161592588,1.131248593,-2.422148228,0.283216685,2.99613452,0.708041728
1.904,0.0073,1.0807,-0.0626,0.161592588,1.131248593,-2.422148228,0.283216685,2.99613452,0.708041728
1.913,0.0073,1.0807,-0.0626,0.161592588,1.131248593,-2.422148228,0.283216685,2.99613452,0.708041728
1.925,-0.0122,1.0883,-0.0587,0.161592588,1.131248593,-2.422148228,0.283216685,2.99613452,0.708041728
1.925,-0.0029,1.1188,-0.0631,0.161592588,1.131248593,-2.422148228,0.283216685,2.99613452,0.708041728
1.925,0.0193,1.1662,-0.0684,0.161592588,1.131248593,-2.422148228,0.283216685,2.99613452,0.708041728
1.925,0.0293,1.1777,-0.0569,0.161592588,1.131248593,-2.422148228,0.283216685,2.99613452,0.708041728
1.926,0.0293,1.1777,-0.0569,0.161592588,1.131248593,-2.422148228,0.297058105,2.872626543,0.752760172
1.926,0.0293,1.1777,-0.0569,0.161592588,1.131248593,-2.422148228,0.305575907,2.750183105,0.803866923
1.926,0.0293,1.1777,-0.0569,0.161592588,1.131248593,-2.422148228,0.317287862,2.629869223,0.853908956
1.926,0.0293,1.1777,-0.0569,0.161592588,1.131248593,-2.422148228,0.328999847,2.51807332,0.899692118
1.926,0.0293,1.1777,-0.0569,0.161592588,1.131248593,-2.422148228,0.343905985,2.417989016,0.943345845
1.926,0.0293,1.1777,-0.0569,0.161592588,1.131248593,-2.422148228,0.360941559,2.332811117,0.965705037
1.926,0.0293,1.1777,-0.0569,0.161592588,1.131248593,-2.422148228,0.374782979,2.25189209,0.962510884
1.926,0.0293,1.1777,-0.0569,0.161592588,1.131248593,-2.422148228,0.386494964,2.158196449,0.935892761
1.929,0.0293,1.1777,-0.0569,0.161592588,1.131248593,-2.422148228,0.386494964,2.158196449,0.935892761
1.929,0.0293,1.1777,-0.0569,-0.673696876,1.528041124,-2.216566563,0.386494964,2.158196449,0.935892761
2.004,0.0105,1.1457,-0.012,-0.673696876,1.528041124,-2.216566563,0.386494964,2.158196449,0.935892761
2.004,-0.0161,1.1112,0.0183,-0.673696876,1.528041124,-2.216566563,0.386494964,2.158196449,0.935892761
2.004,-0.0156,1.099,0.022,-0.673696876,1.528041124,-2.216566563,0.386494964,2.158196449,0.935892761
2.004,0.0244,1.0633,0.021,-0.673696876,1.528041124,-2.216566563,0.386494964,2.158196449,0.935892761
2.005,0.0244,1.0633,0.021,-0.673696876,1.528041124,-2.216566563,0.398206919,2.045335531,0.891174316
2.005,0.0244,1.0633,0.021,-0.673696876,1.528041124,-2.216566563,0.41204834,1.907986164,0.842197001
2.005,0.0244,1.0633,0.021,-0.673696876,1.528041124,-2.216566563,0.42588976,1.748277426,0.799608052
2.005,0.0244,1.0633,0.021,-0.673696876,1.528041124,-2.216566563,0.434407562,1.581115723,0.769795716
2.006,0.0244,1.0633,0.021,-0.673696876,1.528041124,-2.216566563,0.437601745,1.426730752,0.754889607
2.006,0.0244,1.0633,0.021,-0.673696876,1.528041124,-2.216566563,0.437601745,1.295769572,0.752760172
2.007,0.0244,1.0633,0.021,-0.673696876,1.528041124,-2.216566563,0.428019226,1.190361857,0.747436523
2.007,0.0244,1.0633,0.021,-0.673696876,1.528041124,-2.216566563,0.403530538,1.112637043,0.721883118
2.007,0.0244,1.0633,0.021,-0.673696876,1.528041124,-2.216566563,0.403530538,1.112637043,0.721883118
2.007,0.0244,1.0633,0.021,-1.33561182,1.19699192,-1.212453246,0.403530538,1.112637043,0.721883118
2.048,0.0244,1.0633,0.021,-1.33561182,1.19699192,-1.212453246,0.403530538,1.112637043,0.721883118
2.083,0.0633,1.0103,0.0357,-1.33561182,1.19699192,-1.212453246,0.403530538,1.112637043,0.721883118
2.084,0.0748,1.0066,0.0403,-1.33561182,1.19699192,-1.212453246,0.403530538,1.112637043,0.721883118
2.084,0.1034,1.0308,0.0313,-1.33561182,1.19699192,-1.212453246,0.403530538,1.112637043,0.721883118
2.084,0.1356,1.0318,0.0369,-1.33561182,1.19699192,-1.212453246,0.403530538,1.112637043,0.721883118
2.084,0.1356,1.0318,0.0369,-1.33561182,1.19699192,-1.212453246,0.384365499,1.060465455,0.68355304
2.085,0.1356,1.0318,0.0369,-1.33561182,1.19699192,-1.212453246,0.37904188,1.034912109,0.652676046
2.085,0.1356,1.0318,0.0369,-1.33561182,1.19699192,-1.212453246,0.380106598,1.037041545,0.643093526
2.085,0.1356,1.0318,0.0369,-1.33561182,1.19699192,-1.212453246,0.384365499,1.05833602,0.655870259
2.086,0.1356,1.0318,0.0369,-1.33561182,1.19699192,-1.212453246,0.387559682,1.090277791,0.677164733
2.086,0.1356,1.0318,0.0369,-1.33561182,1.19699192,-1.212453246,0.386494964,1.133931518,0.694200337
2.086,0.1356,1.0318,0.0369,-1.33561182,1.19699192,-1.212453246,0.387559682,1.17971468,0.69739449
2.086,0.1356,1.0318,0.0369,-1.33561182,1.19699192,-1.212453246,0.381171346,1.210591674,0.679294169
2.087,0.1356,1.0318,0.0369,-1.33561182,1.19699192,-1.212453246,0.381171346,1.210591674,0.679294169
2.087,0.1356,1.0318,0.0369,-0.699110746,0.392650038,-0.865777016,0.381171346,1.210591674,0.679294169
2.112,0.1356,1.0318,0.0369,-0.699110746,0.392650038,-0.865777016,0.381171346,1.210591674,0.679294169
2.166,0.1281,0.9949,0.0486,-0.699110746,0.392650038,-0.865777016,0.381171346,1.210591674,0.679294169
2.167,0.1183,0.9695,0.0457,-0.699110746,0.392650038,-0.865777016,0.381171346,1.210591674,0.679294169
2.167,0.1513,0.9739,0.0291,-0.699110746,0.392650038,-0.865777016,0.381171346,1.210591674,0.679294169
2.167,0.1955,0.9954,0.0122,-0.699110746,0.392650038,-0.865777016,0.381171346,1.210591674,0.679294169
2.167,0.1955,0.9954,0.0122,-0.699110746,0.392650038,-0.865777016,0.371588826,1.221238852,0.646287739
2.168,0.1955,0.9954,0.0122,-0.699110746,0.392650038,-0.865777016,0.36520046,1.220174193,0.611151814
2.168,0.1955,0.9954,0.0122,-0.699110746,0.392650038,-0.865777016,0.364135742,1.218044758,0.577080607
2.168,0.1955,0.9954,0.0122,-0.699110746,0.392650038,-0.865777016,0.36520046,1.223368287,0.551527262
2.168,0.1955,0.9954,0.0122,-0.699110746,0.392650038,-0.865777016,0.36520046,1.239339232,0.530232728
2.169,0.1955,0.9954,0.0122,-0.699110746,0.392650038,-0.865777016,0.360941559,1.265957355,0.503614664
2.169,0.1955,0.9954,0.0122,-0.699110746,0.392650038,-0.865777016,0.353488505,1.302157998,0.469543457
2.169,0.1955,0.9954,0.0122,-0.699110746,0.392650038,-0.865777016,0.343905985,1.344746947,0.428019226
2.169,0.1955,0.9954,0.0122,-0.699110746,0.392650038,-0.865777016,0.343905985,1.344746947,0.428019226
2.17,0.1955,0.9954,0.0122,-0.596880257,-0.022574222,-0.742850363,0.343905985,1.344746947,0.428019226
2.244,0.2141,1.0572,-0.0002,-0.596880257,-0.022574222,-0.742850363,0.343905985,1.344746947,0.428019226
2.245,0.2309,1.1457,-0.0137,-0.596880257,-0.022574222,-0.742850363,0.343905985,1.344746947,0.428019226
2.246,0.2512,1.2041,-0.0274,-0.596880257,-0.022574222,-0.742850363,0.343905985,1.344746947,0.428019226
2.247,0.2449,1.2161,-0.0152,-0.596880257,-0.022574222,-0.742850363,0.343905985,1.344746947,0.428019226
2.248,0.2449,1.2161,-0.0152,-0.596880257,-0.022574222,-0.742850363,0.336452901,1.386271119,0.3886244
2.249,0.2449,1.2161,-0.0152,-0.596880257,-0.022574222,-0.742850363,0.326870382,1.417148232,0.35561794
2.25,0.2449,1.2161,-0.0152,-0.596880257,-0.022574222,-0.742850363,0.317287862,1.440572143,0.331129283
2.25,0.2449,1.2161,-0.0152,-0.596880257,-0.022574222,-0.742850363,0.306640625,1.457607746,0.309834808
2.251,0.2449,1.2161,-0.0152,-0.596880257,-0.022574222,-0.742850363,0.293863922,1.47464335,0.284281403
2.437,0.2449,1.2161,-0.0152,-0.596880257,-0.022574222,-0.742850363,0.282151967,1.497002482,0.24808079
2.437,0.2449,1.2161,-0.0152,-0.596880257,-0.022574222,-0.742850363,0.266181111,1.519361734,0.206556529
2.437,0.2449,1.2161,-0.0152,-0.596880257,-0.022574222,-0.742850363,0.244886607,1.540656209,0.157579213
2.437,0.2449,1.2161,-0.0152,-0.596880257,-0.022574222,-0.742850363,0.244886607,1.540656209,0.157579213
2.437,0.2449,1.2161,-0.0152,0.244261324,2.000592232,-1.272192717,0.244886607,1.540656209,0.157579213
2.437,0.2449,1.2161,-0.0152,0.244261324,2.000592232,-1.272192717,0.244886607,1.540656209,0.157579213
2.437,0.2449,1.2161,-0.0152,0.244261324,2.000592232,-1.272192717,0.244886607,1.540656209,0.157579213
2.438,0.2006,1.1653,0.0176,0.244261324,2.000592232,-1.272192717,0.244886607,1.540656209,0.157579213
2.438,0.1493,1.1059,0.0408,0.244261324,2.000592232,-1.272192717,0.244886607,1.540656209,0.157579213
2.438,0.1161,1.0528,0.0408,0.244261324,2.000592232,-1.272192717,0.244886607,1.540656209,0.157579213
2.438,0.1024,1.0115,0.0227,0.244261324,2.000592232,-1.272192717,0.244886607,1.540656209,0.157579213
2.438,0.1024,1.0115,0.0227,0.244261324,2.000592232,-1.272192717,0.223592132,1.549173951,0.10647244
2.438,0.1024,1.0115,0.0227,0.244261324,2.000592232,-1.272192717,0.20123291,1.545979857,0.060689293
2.438,0.1024,1.0115,0.0227,0.244261324,2.000592232,-1.272192717,0.183132604,1.541720986,0.02661811
2.438,0.1024,1.0115,0.0227,0.244261324,2.000592232,-1.272192717,0.157579213,1.547044516,0.001064724
2.438,0.1024,1.0115,0.0227,0.244261324,2.000592232,-1.272192717,0.125637487,1.553432941,-0.01703559
2.439,0.1024,1.0115,0.0227,0.244261324,2.000592232,-1.272192717,0.088372126,1.558756471,-0.033006456
2.439,0.1024,1.0115,0.0227,0.244261324,2.000592232,-1.272192717,0.048977323,1.560886025,-0.050042048
2.439,0.1024,1.0115,0.0227,0.244261324,2.000592232,-1.272192717,0.00958252,1.564080119,-0.072401263
2.439,0.1024,1.0115,0.0227,0.244261324,2.000592232,-1.272192717,0.00958252,1.564080119,-0.072401263
2.439,0.1024,1.0115,0.0227,-0.766066968,1.046507955,-0.768775105,0.00958252,1.564080119,-0.072401263
2.439,0.0951,0.9812,0.0059,-0.766066968,1.046507955,-0.768775105,0.00958252,1.564080119,-0.072401263
2.439,0.0677,0.9741,-0.0017,-0.766066968,1.046507955,-0.768775105,0.00958252,1.564080119,-0.072401263
2.439,0.0415,1.0154,-0.0017,-0.766066968,1.046507955,-0.768775105,0.00958252,1.564080119,-0.072401263
2.44,0.0367,1.0269,0.0115,-0.766066968,1.046507955,-0.768775105,0.00958252,1.564080119,-0.072401263
2.44,0.0367,1.0269,0.0115,-0.766066968,1.046507955,-0.768775105,-0.031941731,1.557691813,-0.103278264
2.44,0.0367,1.0269,0.0115,-0.766066968,1.046507955,-0.768775105,-0.076660156,1.537461996,-0.143737793
2.44,0.0367,1.0269,0.0115,-0.766066968,1.046507955,-0.768775105,-0.11818441,1.503390908,-0.183132604
2.44,0.0367,1.0269,0.0115,-0.766066968,1.046507955,-0.768775105,-0.151190862,1.454413533,-0.209750712
2.44,0.0367,1.0269,0.0115,-0.766066968,1.046507955,-0.768775105,-0.178873703,1.401177287,-0.214009613
2.44,0.0367,1.0269,0.0115,-0.766066968,1.046507955,-0.768775105,-0.20123291,1.333034992,-0.214009613
2.44,0.0367,1.0269,0.0115,-0.766066968,1.046507955,-0.768775105,-0.223592132,1.245727539,-0.217203781
2.44,0.0367,1.0269,0.0115,-0.766066968,1.046507955,-0.768775105,-0.242757171,1.136060953,-0.229980469
2.44,0.0367,1.0269,0.0115,-0.766066968,1.046507955,-0.768775105,-0.242757171,1.136060953,-0.229980469
2.441,0.0367,1.0269,0.0115,-1.03282094,0.155632898,-1.16433537,-0.242757171,1.136060953,-0.229980469
2.446,0.0367,1.0269,0.0115,-1.03282094,0.155632898,-1.16433537,-0.242757171,1.136060953,-0.229980469
2.482,0.0051,0.9834,0.045,-1.03282094,0.155632898,-1.16433537,-0.242757171,1.136060953,-0.229980469
2.483,-0.0391,0.9692,0.0699,-1.03282094,0.155632898,-1.16433537,-0.242757171,1.136060953,-0.229980469
2.483,-0.0335,0.9915,0.0709,-1.03282094,0.155632898,-1.16433537,-0.242757171,1.136060953,-0.229980469
2.483,-0.0054,1.0497,0.0709,-1.03282094,0.155632898,-1.16433537,-0.242757171,1.136060953,-0.229980469
2.484,-0.0054,1.0497,0.0709,-1.03282094,0.155632898,-1.16433537,-0.254469126,1.009358764,-0.254469126
2.484,-0.0054,1.0497,0.0709,-1.03282094,0.155632898,-1.16433537,-0.251274973,0.87094456,-0.278957784
2.484,-0.0054,1.0497,0.0709,-1.03282094,0.155632898,-1.16433537,-0.233174652,0.727206767,-0.286410868
2.485,-0.0054,1.0497,0.0709,-1.03282094,0.155632898,-1.16433537,-0.207621261,0.584533691,-0.272569448
2.485,-0.0054,1.0497,0.0709,-1.03282094,0.155632898,-1.16433537,-0.188456222,0.446119517,-0.247016057
2.485,-0.0054,1.0497,0.0709,-1.03282094,0.155632898,-1.16433537,-0.174614802,0.307705343,-0.223592132
2.486,-0.0054,1.0497,0.0709,-1.03282094,0.155632898,-1.16433537,-0.161838114,0.184197322,-0.202297643
2.486,-0.0054,1.0497,0.0709,-1.03282094,0.155632898,-1.16433537,-0.154385045,0.084113225,-0.174614802
2.486,-0.0054,1.0497,0.0709,-1.03282094,0.155632898,-1.16433537,-0.154385045,0.084113225,-0.174614802
2.486,-0.0054,1.0497,0.0709,-1.490575075,-0.03018102,-0.678858876,-0.154385045,0.084113225,-0.174614802
2.512,-0.0054,1.0497,0.0709,-1.490575075,-0.03018102,-0.678858876,-0.154385045,0.084113225,-0.174614802
2.566,0.0176,1.1242,0.0645,-1.490575075,-0.03018102,-0.678858876,-0.154385045,0.084113225,-0.174614802
2.566,0.0283,1.1071,0.0931,-1.490575075,-0.03018102,-0.678858876,-0.154385045,0.084113225,-0.174614802
2.567,-0.0088,1.0528,0.163,-1.490575075,-0.03018102,-0.678858876,-0.154385045,0.084113225,-0.174614802
2.567,-0.0269,1.0147,0.2102,-1.490575075,-0.03018102,-0.678858876,-0.154385045,0.084113225,-0.174614802
2.567,-0.0269,1.0147,0.2102,-1.490575075,-0.03018102,-0.678858876,-0.150126144,0.008517795,-0.135220006
2.568,-0.0269,1.0147,0.2102,-1.490575075,-0.03018102,-0.678858876,-0.157579213,-0.047912598,-0.101148821
2.568,-0.0269,1.0147,0.2102,-1.490575075,-0.03018102,-0.678858876,-0.17567952,-0.09476047,-0.09476047
2.568,-0.0269,1.0147,0.2102,-1.490575075,-0.03018102,-0.678858876,-0.18952094,-0.143737793,-0.114990234
2.569,-0.0269,1.0147,0.2102,-1.490575075,-0.03018102,-0.678858876,-0.190585673,-0.21294488,-0.141608343
2.569,-0.0269,1.0147,0.2102,-1.490575075,-0.03018102,-0.678858876,-0.181003153,-0.305575907,-0.158643931
2.569,-0.0269,1.0147,0.2102,-1.490575075,-0.03018102,-0.678858876,-0.172485352,-0.41204834,-0.166097
2.569,-0.0269,1.0147,0.2102,-1.490575075,-0.03018102,-0.678858876,-0.178873703,-0.538750529,-0.179938421
2.57,-0.0269,1.0147,0.2102,-1.490575075,-0.03018102,-0.678858876,-0.178873703,-0.538750529,-0.179938421
2.57,-0.0269,1.0147,0.2102,-0.945756972,0.916316628,-0.206920162,-0.178873703,-0.538750529,-0.179938421
2.64,0.0115,0.9829,0.2312,-0.945756972,0.916316628,-0.206920162,-0.178873703,-0.538750529,-0.179938421
2.64,0.075,0.9773,0.2385,-0.945756972,0.916316628,-0.206920162,-0.178873703,-0.538750529,-0.179938421
2.64,0.1114,0.9685,0.2466,-0.945756972,0.916316628,-0.206920162,-0.178873703,-0.538750529,-0.179938421
2.641,0.1166,0.9519,0.2493,-0.945756972,0.916316628,-0.206920162,-0.178873703,-0.538750529,-0.179938421
2.641,0.1166,0.9519,0.2493,-0.945756972,0.916316628,-0.206920162,-0.198038742,-0.675035298,-0.208685979
2.641,0.1166,0.9519,0.2493,-0.945756972,0.916316628,-0.206920162,-0.219333231,-0.802802205,-0.24808079
2.641,0.1166,0.9519,0.2493,-0.945756972,0.916316628,-0.206920162,-0.240627721,-0.899692118,-0.293863922
2.642,0.1166,0.9519,0.2493,-0.945756972,0.916316628,-0.206920162,-0.260857493,-0.957187235,-0.335388184
2.642,0.1166,0.9519,0.2493,-0.945756972,0.916316628,-0.206920162,-0.272569448,-0.979546428,-0.362006307
2.642,0.1166,0.9519,0.2493,-0.945756972,0.916316628,-0.206920162,-0.277893066,-0.965705037,-0.374782979
2.643,0.1166,0.9519,0.2493,-0.945756972,0.916316628,-0.206920162,-0.275763631,-0.914598286,-0.369459361
2.643,0.1166,0.9519,0.2493,-0.945756972,0.916316628,-0.206920162,-0.266181111,-0.83793813,-0.348164886
2.643,0.1166,0.9519,0.2493,-0.945756972,0.916316628,-0.206920162,-0.266181111,-0.83793813,-0.348164886
2.643,0.1166,0.9519,0.2493,0.026342086,-0.101900011,0.768472254,-0.266181111,-0.83793813,-0.348164886
2.644,0.1166,0.9519,0.2493,0.026342086,-0.101900011,0.768472254,-0.266181111,-0.83793813,-0.348164886
2.711,0.1166,0.9519,0.2493,0.026342086,-0.101900011,0.768472254,-0.266181111,-0.83793813,-0.348164886
2.719,0.1386,0.9856,0.2549,0.026342086,-0.101900011,0.768472254,-0.266181111,-0.83793813,-0.348164886
2.72,0.1879,1.0037,0.2605,0.026342086,-0.101900011,0.768472254,-0.266181111,-0.83793813,-0.348164886
2.72,0.1892,0.9651,0.2815,0.026342086,-0.101900011,0.768472254,-0.266181111,-0.83793813,-0.348164886
2.72,0.1535,0.9624,0.2942,0.026342086,-0.101900011,0.768472254,-0.266181111,-0.83793813,-0.348164886
2.72,0.1535,0.9624,0.2942,0.026342086,-0.101900011,0.768472254,-0.249145508,-0.751695454,-0.314093709
2.721,0.1535,0.9624,0.2942,0.026342086,-0.101900011,0.768472254,-0.227851018,-0.666517496,-0.276828349
2.721,0.1535,0.9624,0.2942,0.026342086,-0.101900011,0.768472254,-0.211880162,-0.590922058,-0.255533844
2.721,0.1535,0.9624,0.2942,0.026342086,-0.101900011,0.768472254,-0.204427093,-0.530232728,-0.265116364
2.721,0.1535,0.9624,0.2942,0.026342086,-0.101900011,0.768472254,-0.19910346,-0.487643778,-0.295993388
2.721,0.1535,0.9624,0.2942,0.026342086,-0.101900011,0.768472254,-0.188456222,-0.453572601,-0.322611481
2.722,0.1535,0.9624,0.2942,0.026342086,-0.101900011,0.768472254,-0.173550084,-0.419501424,-0.327935129
2.722,0.1535,0.9624,0.2942,0.026342086,-0.101900011,0.768472254,-0.160773382,-0.386494964,-0.309834808
2.722,0.1535,0.9624,0.2942,0.026342086,-0.101900011,0.768472254,-0.160773382,-0.386494964,-0.309834808
2.723,0.1535,0.9624,0.2942,1.048955441,-0.008789116,0.906939209,-0.160773382,-0.386494964,-0.309834808
2.799,0.1574,0.9805,0.2928,1.048955441,-0.008789116,0.906939209,-0.160773382,-0.386494964,-0.309834808
2.799,0.1843,0.9873,0.2977,1.048955441,-0.008789116,0.906939209,-0.160773382,-0.386494964,-0.309834808
2.799,0.1818,1.0101,0.3062,1.048955441,-0.008789116,0.906939209,-0.160773382,-0.386494964,-0.309834808
2.799,0.1679,1.0255,0.3055,1.048955441,-0.008789116,0.906939209,-0.160773382,-0.386494964,-0.309834808
2.799,0.1679,1.0255,0.3055,1.048955441,-0.008789116,0.906939209,-0.146931961,-0.354553223,-0.280022532
2.981,0.1679,1.0255,0.3055,1.048955441,-0.008789116,0.906939209,-0.136284724,-0.310899526,-0.250210226
2.981,0.1679,1.0255,0.3055,1.048955441,-0.008789116,0.906939209,-0.124572754,-0.252339691,-0.232109919
2.981,0.1679,1.0255,0.3055,1.048955441,-0.008789116,0.906939209,-0.108601891,-0.191650391,-0.217203781
2.981,0.1679,1.0255,0.3055,1.048955441,-0.008789116,0.906939209,-0.0830485,-0.128831655,-0.193779841
2.982,0.1679,1.0255,0.3055,1.048955441,-0.008789116,0.906939209,-0.05536567,-0.069207087,-0.158643931
2.982,0.1679,1.0255,0.3055,1.048955441,-0.008789116,0.906939209,-0.033006456,-0.011711968,-0.11605496
2.982,0.1679,1.0255,0.3055,1.048955441,-0.008789116,0.906939209,-0.012776693,0.047912598,-0.076660156
2.982,0.1679,1.0255,0.3055,1.048955441,-0.008789116,0.906939209,-0.012776693,0.047912598,-0.076660156
2.982,0.1679,1.0255,0.3055,1.142376423,0.212654188,1.104398131,-0.012776693,0.047912598,-0.076660156
2.982,0.1679,1.0255,0.3055,1.142376423,0.212654188,1.104398131,-0.012776693,0.047912598,-0.076660156
2.983,0.1493,0.9981,0.3104,1.142376423,0.212654188,1.104398131,-0.012776693,0.047912598,-0.076660156
2.983,0.1193,0.9868,0.3138,1.142376423,0.212654188,1.104398131,-0.012776693,0.047912598,-0.076660156
2.983,0.1066,0.9778,0.3079,1.142376423,0.212654188,1.104398131,-0.012776693,0.047912598,-0.076660156
2.983,0.1007,0.979,0.3158,1.142376423,0.212654188,1.104398131,-0.012776693,0.047912598,-0.076660156
2.983,0.1007,0.979,0.3158,1.142376423,0.212654188,1.104398131,0.003194173,0.110731341,-0.042588975
2.983,0.1007,0.979,0.3158,1.142376423,0.212654188,1.104398131,0.023423936,0.170355901,-0.01703559
2.983,0.1007,0.979,0.3158,1.142376423,0.212654188,1.104398131,0.043653701,0.22465685,0.012776693
2.984,0.1007,0.979,0.3158,1.142376423,0.212654188,1.104398131,0.057495117,0.284281403,0.05536567
2.984,0.1007,0.979,0.3158,1.142376423,0.212654188,1.104398131,0.05536567,0.343905985,0.099019371
2.984,0.1007,0.979,0.3158,1.142376423,0.212654188,1.104398131,0.043653701,0.399271637,0.128831655
2.984,0.1007,0.979,0.3158,1.142376423,0.212654188,1.104398131,0.040459529,0.456766784,0.155449763
2.984,0.1007,0.979,0.3158,1.142376423,0.212654188,1.104398131,0.044718426,0.516391337,0.18952094
2.984,0.1007,0.979,0.3158,1.142376423,0.212654188,1.104398131,0.044718426,0.516391337,0.18952094
2.984,0.1007,0.979,0.3158,0.473448724,0.004812807,1.165410638,0.044718426,0.516391337,0.18952094
2.985,0.1007,0.979,0.3158,0.473448724,0.004812807,1.165410638,0.044718426,0.516391337,0.18952094
2.985,0.0926,1.0108,0.3192,0.473448724,0.004812807,1.165410638,0.044718426,0.516391337,0.18952094
2.985,0.1017,1.0357,0.3052,0.473448724,0.004812807,1.165410638,0.044718426,0.516391337,0.18952094
2.985,0.1066,1.0281,0.2925,0.473448724,0.004812807,1.165410638,0.044718426,0.516391337,0.18952094
2.985,0.0987,1.0025,0.2864,0.473448724,0.004812807,1.165410638,0.044718426,0.516391337,0.18952094
2.985,0.0987,1.0025,0.2864,0.473448724,0.004812807,1.165410638,0.051106773,0.564303935,0.227851018
2.985,0.0987,1.0025,0.2864,0.473448724,0.004812807,1.165410638,0.058559842,0.595180929,0.265116364
2.986,0.0987,1.0025,0.2864,0.473448724,0.004812807,1.165410638,0.062818743,0.60369873,0.290669769
2.986,0.0987,1.0025,0.2864,0.473448724,0.004812807,1.165410638,0.059624568,0.591986775,0.29492867
2.986,0.0987,1.0025,0.2864,0.473448724,0.004812807,1.165410638,0.052171495,0.565368652,0.283216685
2.986,0.0987,1.0025,0.2864,0.473448724,0.004812807,1.165410638,0.043653701,0.532362223,0.26192221
2.986,0.0987,1.0025,0.2864,0.473448724,0.004812807,1.165410638,0.037265353,0.49616158,0.235304087
2.986,0.0987,1.0025,0.2864,0.473448724,0.004812807,1.165410638,0.035135906,0.45889622,0.208685979
2.986,0.0987,1.0025,0.2864,0.473448724,0.004812807,1.165410638,0.035135906,0.45889622,0.208685979
2.987,0.0987,1.0025,0.2864,0.318693429,0.495871872,1.044208527,0.035135906,0.45889622,0.208685979
3.041,0.0885,0.9761,0.2847,0.318693429,0.495871872,1.044208527,0.035135906,0.45889622,0.208685979
3.041,0.0882,0.9597,0.2762,0.318693429,0.495871872,1.044208527,0.035135906,0.45889622,0.208685979
3.042,0.1048,0.9658,0.261,0.318693429,0.495871872,1.044208527,0.035135906,0.45889622,0.208685979
3.042,0.1251,0.9519,0.2463,0.318693429,0.495871872,1.044208527,0.035135906,0.45889622,0.208685979
3.042,0.1251,0.9519,0.2463,0.318693429,0.495871872,1.044208527,0.034071181,0.424825042,0.191650391
3.043,0.1251,0.9519,0.2463,0.318693429,0.495871872,1.044208527,0.033006456,0.396077484,0.181003153
3.043,0.1251,0.9519,0.2463,0.318693429,0.495871872,1.044208527,0.031941731,0.373718262,0.174614802
3.043,0.1251,0.9519,0.2463,0.318693429,0.495871872,1.044208527,0.028747559,0.353488505,0.172485352
3.044,0.1251,0.9519,0.2463,0.318693429,0.495871872,1.044208527,0.019165039,0.335388184,0.17567952
3.044,0.1251,0.9519,0.2463,0.318693429,0.495871872,1.044208527,0.006388347,0.319417328,0.184197322
3.044,0.1251,0.9519,0.2463,0.318693429,0.495871872,1.044208527,-0.00958252,0.311964244,0.184197322
3.044,0.1251,0.9519,0.2463,0.318693429,0.495871872,1.044208527,-0.021294488,0.30877009,0.169291183
3.045,0.1251,0.9519,0.2463,0.318693429,0.495871872,1.044208527,-0.021294488,0.30877009,0.169291183
3.045,0.1251,0.9519,0.2463,0.182145059,-0.145761281,0.734866738,-0.021294488,0.30877009,0.169291183
3.045,0.1251,0.9519,0.2463,0.182145059,-0.145761281,0.734866738,-0.021294488,0.30877009,0.169291183
3.112,0.1251,0.9519,0.2463,0.182145059,-0.145761281,0.734866738,-0.021294488,0.30877009,0.169291183
3.118,0.1224,0.9341,0.2503,0.182145059,-0.145761281,0.734866738,-0.021294488,0.30877009,0.169291183
3.119,0.1036,0.9316,0.2485,0.182145059,-0.145761281,0.734866738,-0.021294488,0.30877009,0.169291183
3.119,0.0858,0.9228,0.2461,0.182145059,-0.145761281,0.734866738,-0.021294488,0.30877009,0.169291183
3.119,0.0799,0.9345,0.2334,0.182145059,-0.145761281,0.734866738,-0.021294488,0.30877009,0.169291183
3.12,0.0799,0.9345,0.2334,0.182145059,-0.145761281,0.734866738,-0.027682835,0.311964244,0.152255595
3.12,0.0799,0.9345,0.2334,0.182145059,-0.145761281,0.734866738,-0.023423936,0.31835261,0.139478892
3.12,0.0799,0.9345,0.2334,0.182145059,-0.145761281,0.734866738,-0.011711968,0.330064565,0.136284724
3.121,0.0799,0.9345,0.2334,0.182145059,-0.145761281,0.734866738,0.004258898,0.337517649,0.141608343
3.121,0.0799,0.9345,0.2334,0.182145059,-0.145761281,0.734866738,0.023423936,0.335388184,0.150126144
3.121,0.0799,0.9345,0.2334,0.182145059,-0.145761281,0.734866738,0.047912598,0.328999847,0.158643931
3.121,0.0799,0.9345,0.2334,0.182145059,-0.145761281,0.734866738,0.075595431,0.327935129,0.172485352
3.122,0.0799,0.9345,0.2334,0.182145059,-0.145761281,0.734866738,0.09476047,0.331129283,0.18952094
3.122,0.0799,0.9345,0.2334,0.182145059,-0.145761281,0.734866738,0.09476047,0.331129283,0.18952094
3.122,0.0799,0.9345,0.2334,0.011230535,-0.518922925,0.528691828,0.09476047,0.331129283,0.18952094
3.198,0.0865,0.9458,0.2236,0.011230535,-0.518922925,0.528691828,0.09476047,0.331129283,0.18952094
3.199,0.0909,0.9382,0.2268,0.011230535,-0.518922925,0.528691828,0.09476047,0.331129283,0.18952094
3.2,0.0936,0.9402,0.2204,0.011230535,-0.518922925,0.528691828,0.09476047,0.331129283,0.18952094
3.201,0.1029,0.9485,0.2075,0.011230535,-0.518922925,0.528691828,0.09476047,0.331129283,0.18952094
3.201,0.1029,0.9485,0.2075,0.011230535,-0.518922925,0.528691828,0.109666616,0.330064565,0.203362361
3.202,0.1029,0.9485,0.2075,0.011230535,-0.518922925,0.528691828,0.123508029,0.316223145,0.216139048
3.203,0.1029,0.9485,0.2075,0.011230535,-0.518922925,0.528691828,0.140543625,0.286410868,0.220397949
3.203,0.1029,0.9485,0.2075,0.011230535,-0.518922925,0.528691828,0.163967565,0.252339691,0.217203781
3.204,0.1029,0.9485,0.2075,0.011230535,-0.518922925,0.528691828,0.193779841,0.2225274,0.21294488
3.205,0.1029,0.9485,0.2075,0.011230535,-0.518922925,0.528691828,0.2225274,0.188456222,0.21081543
3.206,0.1029,0.9485,0.2075,0.011230535,-0.518922925,0.528691828,0.244886607,0.146931961,0.208685979
3.206,0.1029,0.9485,0.2075,0.011230535,-0.518922925,0.528691828,0.26192221,0.101148821,0.202297643
3.207,0.1029,0.9485,0.2075,0.011230535,-0.518922925,0.528691828,0.26192221,0.101148821,0.202297643
3.208,0.1029,0.9485,0.2075,-0.071471192,-0.37827915,0.36299172,0.26192221,0.101148821,0.202297643
3.276,0.1198,0.9519,0.2004,-0.071471192,-0.37827915,0.36299172,0.26192221,0.101148821,0.202297643
3.276,0.1383,0.9573,0.1948,-0.071471192,-0.37827915,0.36299172,0.26192221,0.101148821,0.202297643
3.276,0.1457,0.9595,0.1796,-0.071471192,-0.37827915,0.36299172,0.26192221,0.101148821,0.202297643
3.277,0.1493,0.9798,0.1642,-0.071471192,-0.37827915,0.36299172,0.26192221,0.101148821,0.202297643
3.277,0.1493,0.9798,0.1642,-0.071471192,-0.37827915,0.36299172,0.272569448,0.051106773,0.192715123
3.277,0.1493,0.9798,0.1642,-0.071471192,-0.37827915,0.36299172,0.283216685,0.002129449,0.182067871
3.278,0.1493,0.9798,0.1642,-0.071471192,-0.37827915,0.36299172,0.290669769,-0.047912598,0.169291183
3.278,0.1493,0.9798,0.1642,-0.071471192,-0.37827915,0.36299172,0.298122823,-0.09263102,0.152255595
3.278,0.1493,0.9798,0.1642,-0.071471192,-0.37827915,0.36299172,0.304511189,-0.134155273,0.129896373
3.279,0.1493,0.9798,0.1642,-0.071471192,-0.37827915,0.36299172,0.307705343,-0.169291183,0.109666616
3.279,0.1493,0.9798,0.1642,-0.071471192,-0.37827915,0.36299172,0.314093709,-0.192715123,0.102213547
3.279,0.1493,0.9798,0.1642,-0.071471192,-0.37827915,0.36299172,0.31835261,-0.209750712,0.10434299
3.279,0.1493,0.9798,0.1642,-0.071471192,-0.37827915,0.36299172,0.31835261,-0.209750712,0.10434299
3.28,0.1493,0.9798,0.1642,0.298389524,-0.212410226,0.191124916,0.31835261,-0.209750712,0.10434299
3.309,0.1493,0.9798,0.1642,0.298389524,-0.212410226,0.191124916,0.31835261,-0.209750712,0.10434299
3.355,0.1664,1.0027,0.1545,0.298389524,-0.212410226,0.191124916,0.31835261,-0.209750712,0.10434299
3.356,0.1838,1.0357,0.1645,0.298389524,-0.212410226,0.191124916,0.31835261,-0.209750712,0.10434299
3.498,0.2075,1.066,0.1701,0.298389524,-0.212410226,0.191124916,0.31835261,-0.209750712,0.10434299
3.499,0.2309,1.1054,0.1701,0.298389524,-0.212410226,0.191124916,0.31835261,-0.209750712,0.10434299
3.499,0.2309,1.1054,0.1701,0.298389524,-0.212410226,0.191124916,0.320482045,-0.228915751,0.108601891
3.499,0.2309,1.1054,0.1701,0.298389524,-0.212410226,0.191124916,0.321546763,-0.241692439,0.109666616
3.499,0.2309,1.1054,0.1701,0.298389524,-0.212410226,0.191124916,0.322611481,-0.258728027,0.110731341
3.499,0.2309,1.1054,0.1701,0.298389524,-0.212410226,0.191124916,0.336452901,-0.278957784,0.112860784
3.499,0.2309,1.1054,0.1701,0.298389524,-0.212410226,0.191124916,0.354553223,-0.301317006,0.111796066
3.499,0.2309,1.1054,0.1701,0.298389524,-0.212410226,0.191124916,0.369459361,-0.323676229,0.102213547
3.499,0.2309,1.1054,0.1701,0.298389524,-0.212410226,0.191124916,0.391818583,-0.346035421,0.087307401
3.499,0.2309,1.1054,0.1701,0.298389524,-0.212410226,0.191124916,0.421630859,-0.359876841,0.070271812
3.5,0.2309,1.1054,0.1701,0.298389524,-0.212410226,0.191124916,0.421630859,-0.359876841,0.070271812
3.5,0.2309,1.1054,0.1701,0.768888593,0.759633482,0.337500662,0.421630859,-0.359876841,0.070271812
3.5,0.2544,1.1491,0.1498,0.768888593,0.759633482,0.337500662,0.421630859,-0.359876841,0.070271812
3.5,0.2625,1.1802,0.1303,0.768888593,0.759633482,0.337500662,0.421630859,-0.359876841,0.070271812
3.5,0.251,1.1885,0.1234,0.768888593,0.759633482,0.337500662,0.421630859,-0.359876841,0.070271812
3.5,0.2212,1.1633,0.1144,0.768888593,0.759633482,0.337500662,0.421630859,-0.359876841,0.070271812
3.5,0.2212,1.1633,0.1144,0.768888593,0.759633482,0.337500662,0.445054799,-0.362006307,0.054300945
3.5,0.2212,1.1633,0.1144,0.768888593,0.759633482,0.337500662,0.462090403,-0.343905985,0.034071181
3.5,0.2212,1.1633,0.1144,0.768888593,0.759633482,0.337500662,0.469543457,-0.299187571,0.011711968
3.501,0.2212,1.1633,0.1144,0.768888593,0.759633482,0.337500662,0.470608175,-0.225721568,-0.003194173
3.501,0.2212,1.1633,0.1144,0.768888593,0.759633482,0.337500662,0.474867076,-0.130961105,-0.005323622
3.501,0.2212,1.1633,0.1144,0.768888593,0.759633482,0.337500662,0.478061259,-0.030877007,0
3.501,0.2212,1.1633,0.1144,0.768888593,0.759633482,0.337500662,0.470608175,0.074530706,0.006388347
3.501,0.2212,1.1633,0.1144,0.768888593,0.759633482,0.337500662,0.455702037,0.176744252,0.013841418
3.501,0.2212,1.1633,0.1144,0.768888593,0.759633482,0.337500662,0.455702037,0.176744252,0.013841418
3.501,0.2212,1.1633,0.1144,1.194845796,1.959681273,0.270800799,0.455702037,0.176744252,0.013841418
3.501,0.2212,1.1633,0.1144,1.194845796,1.959681273,0.270800799,0.455702037,0.176744252,0.013841418
3.51,0.2212,1.1633,0.1144,1.194845796,1.959681273,0.270800799,0.455702037,0.176744252,0.013841418
3.516,0.1774,1.1298,0.1075,1.194845796,1.959681273,0.270800799,0.455702037,0.176744252,0.013841418
3.516,0.143,1.1225,0.085,1.194845796,1.959681273,0.270800799,0.455702037,0.176744252,0.013841418
3.516,0.1361,1.1379,0.0481,1.194845796,1.959681273,0.270800799,0.455702037,0.176744252,0.013841418
3.516,0.1501,1.1626,0.0156,1.194845796,1.959681273,0.270800799,0.455702037,0.176744252,0.013841418
3.516,0.1501,1.1626,0.0156,1.194845796,1.959681273,0.270800799,0.432278097,0.265116364,0.025553387
3.516,0.1501,1.1626,0.0156,1.194845796,1.959681273,0.270800799,0.405660003,0.335388184,0.039394803
3.516,0.1501,1.1626,0.0156,1.194845796,1.959681273,0.270800799,0.372653544,0.396077484,0.058559842
3.517,0.1501,1.1626,0.0156,1.194845796,1.959681273,0.270800799,0.340711802,0.445054799,0.087307401
3.517,0.1501,1.1626,0.0156,1.194845796,1.959681273,0.270800799,0.306640625,0.480190694,0.126702204
3.517,0.1501,1.1626,0.0156,1.194845796,1.959681273,0.270800799,0.267245829,0.511067688,0.169291183
3.517,0.1501,1.1626,0.0156,1.194845796,1.959681273,0.270800799,0.233174652,0.537685812,0.206556529
3.517,0.1501,1.1626,0.0156,1.194845796,1.959681273,0.270800799,0.208685979,0.553656697,0.239562988
3.519,0.1501,1.1626,0.0156,1.194845796,1.959681273,0.270800799,0.208685979,0.553656697,0.239562988
3.519,0.1501,1.1626,0.0156,0.034029283,1.44009316,-0.169567734,0.208685979,0.553656697,0.239562988
3.596,0.1589,1.1762,0.0171,0.034029283,1.44009316,-0.169567734,0.208685979,0.553656697,0.239562988
3.596,0.1718,1.1403,0.0017,0.034029283,1.44009316,-0.169567734,0.208685979,0.553656697,0.239562988
3.596,0.1852,1.0758,-0.0127,0.034029283,1.44009316,-0.169567734,0.208685979,0.553656697,0.239562988
3.596,0.2014,1.0308,-0.0271,0.034029283,1.44009316,-0.169567734,0.208685979,0.553656697,0.239562988
3.596,0.2014,1.0308,-0.0271,0.034029283,1.44009316,-0.169567734,0.195909292,0.544074178,0.266181111
3.596,0.2014,1.0308,-0.0271,0.034029283,1.44009316,-0.169567734,0.20123291,0.501485169,0.291734487
3.597,0.2014,1.0308,-0.0271,0.034029283,1.44009316,-0.169567734,0.214009613,0.438666463,0.311964244
3.597,0.2014,1.0308,-0.0271,0.034029283,1.44009316,-0.169567734,0.225721568,0.370524079,0.310899526
3.597,0.2014,1.0308,-0.0271,0.034029283,1.44009316,-0.169567734,0.23423937,0.295993388,0.295993388
3.597,0.2014,1.0308,-0.0271,0.034029283,1.44009316,-0.169567734,0.24595134,0.21081543,0.278957784
3.597,0.2014,1.0308,-0.0271,0.034029283,1.44009316,-0.169567734,0.256598592,0.121378586,0.260857493
3.597,0.2014,1.0308,-0.0271,0.034029283,1.44009316,-0.169567734,0.259792745,0.038330078,0.238498271
3.601,0.2014,1.0308,-0.0271,0.034029283,1.44009316,-0.169567734,0.259792745,0.038330078,0.238498271
3.601,0.2014,1.0308,-0.0271,0.309978157,0.916141152,-0.669986784,0.259792745,0.038330078,0.238498271
3.641,0.2014,1.0308,-0.0271,0.309978157,0.916141152,-0.669986784,0.259792745,0.038330078,0.238498271
3.676,0.239,0.9859,-0.0445,0.309978157,0.916141152,-0.669986784,0.259792745,0.038330078,0.238498271
3.676,0.2784,0.936,-0.0481,0.309978157,0.916141152,-0.669986784,0.259792745,0.038330078,0.238498271
3.677,0.3035,0.8923,-0.0455,0.309978157,0.916141152,-0.669986784,0.259792745,0.038330078,0.238498271
3.678,0.2938,0.85,-0.0569,0.309978157,0.916141152,-0.669986784,0.259792745,0.038330078,0.238498271
3.679,0.2938,0.85,-0.0569,0.309978157,0.916141152,-0.669986784,0.256598592,-0.022359213,0.214009613
3.679,0.2938,0.85,-0.0569,0.309978157,0.916141152,-0.669986784,0.253404409,-0.056430392,0.190585673
3.68,0.2938,0.85,-0.0569,0.309978157,0.916141152,-0.669986784,0.251274973,-0.064948186,0.171420634
3.681,0.2938,0.85,-0.0569,0.309978157,0.916141152,-0.669986784,0.259792745,-0.052171495,0.155449763
3.681,0.2938,0.85,-0.0569,0.309978157,0.916141152,-0.669986784,0.273634166,-0.02661811,0.141608343
3.682,0.2938,0.85,-0.0569,0.309978157,0.916141152,-0.669986784,0.288540304,0.010647244,0.137349442
3.683,0.2938,0.85,-0.0569,0.309978157,0.916141152,-0.669986784,0.303446442,0.071336538,0.142673075
3.683,0.2938,0.85,-0.0569,0.309978157,0.916141152,-0.669986784,0.314093709,0.155449763,0.153320313
3.684,0.2938,0.85,-0.0569,0.309978157,0.916141152,-0.669986784,0.314093709,0.155449763,0.153320313
3.685,0.2938,0.85,-0.0569,1.306573153,-0.894533694,-0.793223917,0.314093709,0.155449763,0.153320313
3.709,0.2938,0.85,-0.0569,1.306573153,-0.894533694,-0.793223917,0.314093709,0.155449763,0.153320313
3.755,0.2774,0.8168,-0.0772,1.306573153,-0.894533694,-0.793223917,0.314093709,0.155449763,0.153320313
3.756,0.2683,0.817,-0.0899,1.306573153,-0.894533694,-0.793223917,0.314093709,0.155449763,0.153320313
3.757,0.2639,0.8155,-0.0934,1.306573153,-0.894533694,-0.793223917,0.314093709,0.155449763,0.153320313
3.758,0.2495,0.8116,-0.0965,1.306573153,-0.894533694,-0.793223917,0.314093709,0.155449763,0.153320313
3.761,0.2495,0.8116,-0.0965,1.306573153,-0.894533694,-0.793223917,0.317287862,0.247016057,0.162902832
3.762,0.2495,0.8116,-0.0965,1.306573153,-0.894533694,-0.793223917,0.313028961,0.338582367,0.176744252
3.763,0.2495,0.8116,-0.0965,1.306573153,-0.894533694,-0.793223917,0.29492867,0.417371958,0.196974009
3.764,0.2495,0.8116,-0.0965,1.306573153,-0.894533694,-0.793223917,0.265116364,0.467414021,0.227851018
3.764,0.2495,0.8116,-0.0965,1.306573153,-0.894533694,-0.793223917,0.223592132,0.489773214,0.262986928
3.765,0.2495,0.8116,-0.0965,1.306573153,-0.894533694,-0.793223917,0.172485352,0.489773214,0.292799205
3.766,0.2495,0.8116,-0.0965,1.306573153,-0.894533694,-0.793223917,0.11605496,0.469543457,0.310899526
3.767,0.2495,0.8116,-0.0965,1.306573153,-0.894533694,-0.793223917,0.05536567,0.432278097,0.323676229
3.768,0.2495,0.8116,-0.0965,1.306573153,-0.894533694,-0.793223917,0.05536567,0.432278097,0.323676229
3.769,0.2495,0.8116,-0.0965,0.783211946,-1.645122647,-1.092592478,0.05536567,0.432278097,0.323676229
3.833,0.2432,0.8588,-0.1154,0.783211946,-1.645122647,-1.092592478,0.05536567,0.432278097,0.323676229
3.834,0.2556,0.957,-0.151,0.783211946,-1.645122647,-1.092592478,0.05536567,0.432278097,0.323676229
3.834,0.2632,1.0687,-0.1764,0.783211946,-1.645122647,-1.092592478,0.05536567,0.432278097,0.323676229
3.837,0.241,1.1093,-0.1552,0.783211946,-1.645122647,-1.092592478,0.05536567,0.432278097,0.323676229
3.849,0.241,1.1093,-0.1552,0.783211946,-1.645122647,-1.092592478,-0.004258898,0.385430247,0.334323466
3.849,0.241,1.1093,-0.1552,0.783211946,-1.645122647,-1.092592478,-0.05536567,0.336452901,0.339647084
3.849,0.241,1.1093,-0.1552,0.783211946,-1.645122647,-1.092592478,-0.108601891,0.286410868,0.342841268
3.85,0.241,1.1093,-0.1552,0.783211946,-1.645122647,-1.092592478,-0.168226451,0.244886607,0.34177652
3.85,0.241,1.1093,-0.1552,0.783211946,-1.645122647,-1.092592478,-0.223592132,0.218268499,0.335388184
3.85,0.241,1.1093,-0.1552,0.783211946,-1.645122647,-1.092592478,-0.269375265,0.20123291,0.319417328
3.851,0.241,1.1093,-0.1552,0.783211946,-1.645122647,-1.092592478,-0.314093709,0.176744252,0.290669769
3.851,0.241,1.1093,-0.1552,0.783211946,-1.645122647,-1.092592478,-0.356682688,0.132025823,0.237433538
3.853,0.241,1.1093,-0.1552,0.783211946,-1.645122647,-1.092592478,-0.356682688,0.132025823,0.237433538
3.865,0.241,1.1093,-0.1552,0.524678469,0.891610801,-2.016115189,-0.356682688,0.132025823,0.237433538
4.019,0.241,1.1093,-0.1552,0.524678469,0.891610801,-2.016115189,-0.356682688,0.132025823,0.237433538
4.019,0.1664,1.0756,-0.0924,0.524678469,0.891610801,-2.016115189,-0.356682688,0.132025823,0.237433538
4.019,0.1205,1.0868,-0.0352,0.524678469,0.891610801,-2.016115189,-0.356682688,0.132025823,0.237433538
4.019,0.1312,1.1396,0.0423,0.524678469,0.891610801,-2.016115189,-0.356682688,0.132025823,0.237433538
4.019,0.1205,1.1034,0.129,0.524678469,0.891610801,-2.016115189,-0.356682688,0.132025823,0.237433538
4.019,0.1205,1.1034,0.129,0.524678469,0.891610801,-2.016115189,-0.384365499,0.066012911,0.173550084
4.02,0.1205,1.1034,0.129,0.524678469,0.891610801,-2.016115189,-0.386494964,-0.005323622,0.113925509
4.02,0.1205,1.1034,0.129,0.524678469,0.891610801,-2.016115189,-0.37904188,-0.085177951,0.068142362
4.02,0.1205,1.1034,0.129,0.524678469,0.891610801,-2.016115189,-0.369459361,-0.178873703,0.014906142
4.02,0.1205,1.1034,0.129,0.524678469,0.891610801,-2.016115189,-0.350294322,-0.288540304,-0.061754014
4.02,0.1205,1.1034,0.129,0.524678469,0.891610801,-2.016115189,-0.322611481,-0.40246582,-0.143737793
4.02,0.1205,1.1034,0.129,0.524678469,0.891610801,-2.016115189,-0.332194,-0.535556376,-0.226786301
4.02,0.1205,1.1034,0.129,0.524678469,0.891610801,-2.016115189,-0.387559682,-0.70697701,-0.333258748
4.02,0.1205,1.1034,0.129,0.524678469,0.891610801,-2.016115189,-0.387559682,-0.70697701,-0.333258748
4.021,0.1205,1.1034,0.129,0.524678469,0.891610801,-2.016115189,-0.387559682,-0.70697701,-0.333258748
4.021,0.1205,1.1034,0.129,-0.840013981,1.596906424,-0.104794472,-0.387559682,-0.70697701,-0.333258748
4.021,0.0235,1.0445,0.2322,-0.840013981,1.596906424,-0.104794472,-0.387559682,-0.70697701,-0.333258748
4.021,0.0037,1.177,0.2693,-0.840013981,1.596906424,-0.104794472,-0.387559682,-0.70697701,-0.333258748
4.021,0.1141,1.2833,0.2752,-0.840013981,1.596906424,-0.104794472,-0.387559682,-0.70697701,-0.333258748
4.021,0.2314,1.2784,0.3175,-0.840013981,1.596906424,-0.104794472,-0.387559682,-0.70697701,-0.333258748
4.021,0.2314,1.2784,0.3175,-0.840013981,1.596906424,-0.104794472,-0.422695577,-0.892239034,-0.41204834
4.021,0.2314,1.2784,0.3175,-0.840013981,1.596906424,-0.104794472,-0.405660003,-1.05301249,-0.404595286
4.021,0.2314,1.2784,0.3175,-0.840013981,1.596906424,-0.104794472,-0.369459361,-1.20313859,-0.323676229
4.021,0.2314,1.2784,0.3175,-0.840013981,1.596906424,-0.104794472,-0.352423787,-1.360717773,-0.229980469
4.022,0.2314,1.2784,0.3175,-0.840013981,1.596906424,-0.104794472,-0.35135904,-1.505520344,-0.149061412
4.022,0.2314,1.2784,0.3175,-0.840013981,1.596906424,-0.104794472,-0.362006307,-1.613057494,-0.09476047
4.022,0.2314,1.2784,0.3175,-0.840013981,1.596906424,-0.104794472,-0.372653544,-1.687588215,-0.062818743
4.022,0.2314,1.2784,0.3175,-0.840013981,1.596906424,-0.104794472,-0.370524079,-1.737630248,-0.047912598
4.022,0.2314,1.2784,0.3175,-0.840013981,1.596906424,-0.104794472,-0.370524079,-1.737630248,-0.047912598
4.022,0.2314,1.2784,0.3175,-0.836260855,2.991164207,2.044068813,-0.370524079,-1.737630248,-0.047912598
4.041,0.2314,1.2784,0.3175,-0.836260855,2.991164207,2.044068813,-0.370524079,-1.737630248,-0.047912598
4.073,0.303,1.2154,0.3465,-0.836260855,2.991164207,2.044068813,-0.370524079,-1.737630248,-0.047912598
4.073,0.3541,1.2112,0.3351,-0.836260855,2.991164207,2.044068813,-0.370524079,-1.737630248,-0.047912598
4.073,0.3993,1.2075,0.3329,-0.836260855,2.991164207,2.044068813,-0.370524079,-1.737630248,-0.047912598
4.073,0.3573,1.113,0.3311,-0.836260855,2.991164207,2.044068813,-0.370524079,-1.737630248,-0.047912598
4.073,0.3573,1.113,0.3311,-0.836260855,2.991164207,2.044068813,-0.352423787,-1.735500813,-0.046847872
4.074,0.3573,1.113,0.3311,-0.836260855,2.991164207,2.044068813,-0.307705343,-1.658840656,-0.036200631
4.074,0.3573,1.113,0.3311,-0.836260855,2.991164207,2.044068813,-0.244886607,-1.501261353,-0.007453071
4.074,0.3573,1.113,0.3311,-0.836260855,2.991164207,2.044068813,-0.192715123,-1.276604533,0.01703559
4.074,0.3573,1.113,0.3311,-0.836260855,2.991164207,2.044068813,-0.160773382,-1.01574707,0.001064724
4.074,0.3573,1.113,0.3311,-0.836260855,2.991164207,2.044068813,-0.133090556,-0.74424237,-0.047912598
4.074,0.3573,1.113,0.3311,-0.836260855,2.991164207,2.044068813,-0.105407715,-0.473802358,-0.124572754
4.074,0.3573,1.113,0.3311,-0.836260855,2.991164207,2.044068813,-0.087307401,-0.215074331,-0.216139048
4.076,0.3573,1.113,0.3311,-0.836260855,2.991164207,2.044068813,-0.087307401,-0.215074331,-0.216139048
4.076,0.3573,1.113,0.3311,1.885357738,2.241078377,2.625566721,-0.087307401,-0.215074331,-0.216139048
4.112,0.3573,1.113,0.3311,1.885357738,2.241078377,2.625566721,-0.087307401,-0.215074331,-0.216139048
4.153,0.2539,1.0426,0.3468,1.885357738,2.241078377,2.625566721,-0.087307401,-0.215074331,-0.216139048
4.154,0.1721,1.0142,0.3551,1.885357738,2.241078377,2.625566721,-0.087307401,-0.215074331,-0.216139048
4.154,0.1464,0.9485,0.3507,1.885357738,2.241078377,2.625566721,-0.087307401,-0.215074331,-0.216139048
4.154,0.13,0.8808,0.3209,1.885357738,2.241078377,2.625566721,-0.087307401,-0.215074331,-0.216139048
4.155,0.13,0.8808,0.3209,1.885357738,2.241078377,2.625566721,-0.074530706,-0.020229764,-0.314093709
4.155,0.13,0.8808,0.3209,1.885357738,2.241078377,2.625566721,-0.085177951,0.077724881,-0.396077484
4.155,0.13,0.8808,0.3209,1.885357738,2.241078377,2.625566721,-0.137349442,0.079854332,-0.462090403
4.156,0.13,0.8808,0.3209,1.885357738,2.241078377,2.625566721,-0.228915751,0.002129449,-0.515326619
4.156,0.13,0.8808,0.3209,1.885357738,2.241078377,2.625566721,-0.331129283,-0.142673075,-0.547268331
4.156,0.13,0.8808,0.3209,1.885357738,2.241078377,2.625566721,-0.430148661,-0.332194,-0.571757019
4.156,0.13,0.8808,0.3209,1.885357738,2.241078377,2.625566721,-0.524909139,-0.544074178,-0.588792622
4.157,0.13,0.8808,0.3209,1.885357738,2.241078377,2.625566721,-0.62286377,-0.749565959,-0.588792622
4.157,0.13,0.8808,0.3209,1.885357738,2.241078377,2.625566721,-0.62286377,-0.749565959,-0.588792622
4.157,0.13,0.8808,0.3209,-0.274616808,-0.346338272,2.449133158,-0.62286377,-0.749565959,-0.588792622
4.235,0.1427,0.8265,0.251,-0.274616808,-0.346338272,2.449133158,-0.62286377,-0.749565959,-0.588792622
4.236,0.1945,0.762,0.1774,-0.274616808,-0.346338272,2.449133158,-0.62286377,-0.749565959,-0.588792622
4.237,0.1914,0.7195,0.1261,-0.274616808,-0.346338272,2.449133158,-0.62286377,-0.749565959,-0.588792622
4.238,0.1403,0.7293,0.1002,-0.274616808,-0.346338272,2.449133158,-0.62286377,-0.749565959,-0.588792622
4.238,0.1403,0.7293,0.1002,-0.274616808,-0.346338272,2.449133158,-0.727206767,-0.919921875,-0.56643337
4.239,0.1403,0.7293,0.1002,-0.274616808,-0.346338272,2.449133158,-0.82409668,-1.03917098,-0.528103292
4.24,0.1403,0.7293,0.1002,-0.274616808,-0.346338272,2.449133158,-0.889044881,-1.105183959,-0.485514343
4.24,0.1403,0.7293,0.1002,-0.274616808,-0.346338272,2.449133158,-0.917792439,-1.110507607,-0.464219838
4.241,0.1403,0.7293,0.1002,-0.274616808,-0.346338272,2.449133158,-0.913533568,-1.051947713,-0.474867076
4.242,0.1403,0.7293,0.1002,-0.274616808,-0.346338272,2.449133158,-0.894368529,-0.957187235,-0.510002971
4.242,0.1403,0.7293,0.1002,-0.274616808,-0.346338272,2.449133158,-0.87520349,-0.845391154,-0.558980286
4.243,0.1403,0.7293,0.1002,-0.274616808,-0.346338272,2.449133158,-0.852844238,-0.73040092,-0.605828166
4.244,0.1403,0.7293,0.1002,-0.274616808,-0.346338272,2.449133158,-0.852844238,-0.73040092,-0.605828166
4.244,0.1403,0.7293,0.1002,0.447610527,-2.537605524,-0.253313035,-0.852844238,-0.73040092,-0.605828166
4.245,0.1403,0.7293,0.1002,0.447610527,-2.537605524,-0.253313035,-0.852844238,-0.73040092,-0.605828166
4.312,0.1403,0.7293,0.1002,0.447610527,-2.537605524,-0.253313035,-0.852844238,-0.73040092,-0.605828166
4.314,0.1044,0.7664,0.1026,0.447610527,-2.537605524,-0.253313035,-0.852844238,-0.73040092,-0.605828166
4.315,0.1088,0.8209,0.1325,0.447610527,-2.537605524,-0.253313035,-0.852844238,-0.73040092,-0.605828166
4.316,0.1007,0.8749,0.1603,0.447610527,-2.537605524,-0.253313035,-0.852844238,-0.73040092,-0.605828166
4.317,0.1019,0.9008,0.194,0.447610527,-2.537605524,-0.253313035,-0.852844238,-0.73040092,-0.605828166
4.317,0.1019,0.9008,0.194,0.447610527,-2.537605524,-0.253313035,-0.818773091,-0.634575725,-0.633511007
4.318,0.1019,0.9008,0.194,0.447610527,-2.537605524,-0.253313035,-0.772989929,-0.569627583,-0.637769938
4.319,0.1019,0.9008,0.194,0.447610527,-2.537605524,-0.253313035,-0.729336202,-0.54300946,-0.631381571
4.32,0.1019,0.9008,0.194,0.447610527,-2.537605524,-0.253313035,-0.687811971,-0.555786133,-0.617540181
4.321,0.1019,0.9008,0.194,0.447610527,-2.537605524,-0.253313035,-0.642028809,-0.585598409,-0.590922058
4.321,0.1019,0.9008,0.194,0.447610527,-2.537605524,-0.253313035,-0.599439859,-0.616475403,-0.555786133
4.322,0.1019,0.9008,0.194,0.447610527,-2.537605524,-0.253313035,-0.561109781,-0.653740764,-0.520650208
4.323,0.1019,0.9008,0.194,0.447610527,-2.537605524,-0.253313035,-0.51958549,-0.69313556,-0.483384877
4.324,0.1019,0.9008,0.194,0.447610527,-2.537605524,-0.253313035,-0.51958549,-0.69313556,-0.483384877
4.325,0.1019,0.9008,0.194,-0.025302043,-0.951956034,-0.371334404,-0.51958549,-0.69313556,-0.483384877
4.391,0.0987,0.9272,0.239,-0.025302043,-0.951956034,-0.371334404,-0.51958549,-0.69313556,-0.483384877
4.392,0.1,0.9678,0.2766,-0.025302043,-0.951956034,-0.371334404,-0.51958549,-0.69313556,-0.483384877
4.393,0.1298,1.0015,0.2876,-0.025302043,-0.951956034,-0.371334404,-0.51958549,-0.69313556,-0.483384877
4.394,0.1278,1.047,0.3197,-0.025302043,-0.951956034,-0.371334404,-0.51958549,-0.69313556,-0.483384877
4.395,0.1278,1.047,0.3197,-0.025302043,-0.951956034,-0.371334404,-0.48232016,-0.727206767,-0.451443136
4.396,0.1278,1.047,0.3197,-0.025302043,-0.951956034,-0.371334404,-0.445054799,-0.76766628,-0.434407562
4.397,0.1278,1.047,0.3197,-0.025302043,-0.951956034,-0.371334404,-0.404595286,-0.82409668,-0.43547228
4.398,0.1278,1.047,0.3197,-0.025302043,-0.951956034,-0.371334404,-0.360941559,-0.899692118,-0.450378418
4.398,0.1278,1.047,0.3197,-0.025302043,-0.951956034,-0.371334404,-0.326870382,-0.974222839,-0.473802358
4.399,0.1278,1.047,0.3197,-0.025302043,-0.951956034,-0.371334404,-0.31835261,-1.042365193,-0.52916801
4.573,0.1278,1.047,0.3197,-0.025302043,-0.951956034,-0.371334404,-0.331129283,-1.093472004,-0.620734334
4.574,0.1278,1.047,0.3197,-0.025302043,-0.951956034,-0.371334404,-0.348164886,-1.138190389,-0.722947896
4.574,0.1278,1.047,0.3197,-0.025302043,-0.951956034,-0.371334404,-0.348164886,-1.138190389,-0.722947896
4.574,0.1278,1.047,0.3197,0.475934446,0.358970284,0.621780217,-0.348164886,-1.138190389,-0.722947896
4.575,0.1278,1.047,0.3197,0.475934446,0.358970284,0.621780217,-0.348164886,-1.138190389,-0.722947896
4.575,0.1425,1.0294,0.3245,0.475934446,0.358970284,0.621780217,-0.348164886,-1.138190389,-0.722947896
4.575,0.1804,1.0619,0.3436,0.475934446,0.358970284,0.621780217,-0.348164886,-1.138190389,-0.722947896
4.575,0.1273,1.1415,0.3436,0.475934446,0.358970284,0.621780217,-0.348164886,-1.138190389,-0.722947896
4.575,0.1285,1.2574,0.3336,0.475934446,0.358970284,0.621780217,-0.348164886,-1.138190389,-0.722947896
4.575,0.1285,1.2574,0.3336,0.475934446,0.358970284,0.621780217,-0.353488505,-1.195685506,-0.799608052
4.575,0.1285,1.2574,0.3336,0.475934446,0.358970284,0.621780217,-0.352423787,-1.256374836,-0.850714803
4.575,0.1285,1.2574,0.3336,0.475934446,0.358970284,0.621780217,-0.368394643,-1.306416869,-0.919921875
4.576,0.1285,1.2574,0.3336,0.475934446,0.358970284,0.621780217,-0.404595286,-1.351135254,-1.005099893
4.576,0.1285,1.2574,0.3336,0.475934446,0.358970284,0.621780217,-0.443990082,-1.392659545,-1.072177529
4.576,0.1285,1.2574,0.3336,0.475934446,0.358970284,0.621780217,-0.476996541,-1.405436158,-1.105183959
4.576,0.1285,1.2574,0.3336,0.475934446,0.358970284,0.621780217,-0.462090403,-1.424601197,-1.094536662
4.576,0.1285,1.2574,0.3336,0.475934446,0.358970284,0.621780217,-0.405660003,-1.482096314,-1.028523803
4.576,0.1285,1.2574,0.3336,0.475934446,0.358970284,0.621780217,-0.405660003,-1.482096314,-1.028523803
4.576,0.1285,1.2574,0.3336,0.901854515,1.888793111,0.876856625,-0.405660003,-1.482096314,-1.028523803
4.576,0.1285,1.2574,0.3336,0.901854515,1.888793111,0.876856625,-0.405660003,-1.482096314,-1.028523803
4.576,0.2004,1.3004,0.2803,0.901854515,1.888793111,0.876856625,-0.405660003,-1.482096314,-1.028523803
4.577,0.1464,1.2899,0.3241,0.901854515,1.888793111,0.876856625,-0.405660003,-1.482096314,-1.028523803
4.577,0.1022,1.1831,0.3786,0.901854515,1.888793111,0.876856625,-0.405660003,-1.482096314,-1.028523803
4.577,0.163,1.1,0.412,0.901854515,1.888793111,0.876856625,-0.405660003,-1.482096314,-1.028523803
4.577,0.163,1.1,0.412,0.901854515,1.888793111,0.876856625,-0.372653544,-1.569403768,-0.940151632
4.577,0.163,1.1,0.412,0.901854515,1.888793111,0.876856625,-0.410983622,-1.61518693,-0.883721232
4.577,0.163,1.1,0.412,0.901854515,1.888793111,0.876856625,-0.500420451,-1.566209555,-0.895433247
4.577,0.163,1.1,0.412,0.901854515,1.888793111,0.876856625,-0.551527262,-1.499131918,-0.926310241
4.577,0.163,1.1,0.412,0.901854515,1.888793111,0.876856625,-0.54300946,-1.459737182,-0.885850728
4.577,0.163,1.1,0.412,0.901854515,1.888793111,0.876856625,-0.532362223,-1.395853639,-0.793219686
4.577,0.163,1.1,0.412,0.901854515,1.888793111,0.876856625,-0.567498088,-1.234015584,-0.748501241
4.577,0.163,1.1,0.412,0.901854515,1.888793111,0.876856625,-0.596245646,-1.008293986,-0.768730998
4.578,0.163,1.1,0.412,0.901854515,1.888793111,0.876856625,-0.596245646,-1.008293986,-0.768730998
4.578,0.163,1.1,0.412,1.147763729,2.044184208,0.955369234,-0.596245646,-1.008293986,-0.768730998
4.631,0.0982,1.0123,0.3759,1.147763729,2.044184208,0.955369234,-0.596245646,-1.008293986,-0.768730998
4.631,0.1144,1.0057,0.3011,1.147763729,2.044184208,0.955369234,-0.596245646,-1.008293986,-0.768730998
4.631,0.0032,1.0489,0.3094,1.147763729,2.044184208,0.955369234,-0.596245646,-1.008293986,-0.768730998
4.632,-0.053,1.0399,0.2774,1.147763729,2.044184208,0.955369234,-0.596245646,-1.008293986,-0.768730998
4.632,-0.053,1.0399,0.2774,1.147763729,2.044184208,0.955369234,-0.538750529,-0.803866923,-0.737854004
4.632,-0.053,1.0399,0.2774,1.147763729,2.044184208,0.955369234,-0.443990082,-0.545138896,-0.612216532
4.632,-0.053,1.0399,0.2774,1.147763729,2.044184208,0.955369234,-0.357747406,-0.207621261,-0.468478739
4.632,-0.053,1.0399,0.2774,1.147763729,2.044184208,0.955369234,-0.300252289,0.157579213,-0.373718262
4.632,-0.053,1.0399,0.2774,1.147763729,2.044184208,0.955369234,-0.243821889,0.478061259,-0.346035421
4.632,-0.053,1.0399,0.2774,1.147763729,2.044184208,0.955369234,-0.135220006,0.702718079,-0.350294322
4.632,-0.053,1.0399,0.2774,1.147763729,2.044184208,0.955369234,0.005323622,0.812384725,-0.325805664
4.632,-0.053,1.0399,0.2774,1.147763729,2.044184208,0.955369234,0.11605496,0.788960755,-0.300252289
4.633,-0.053,1.0399,0.2774,1.147763729,2.044184208,0.955369234,0.11605496,0.788960755,-0.300252289
4.633,-0.053,1.0399,0.2774,0.290771723,0.961399496,-0.130542681,0.11605496,0.788960755,-0.300252289
4.639,-0.053,1.0399,0.2774,0.290771723,0.961399496,-0.130542681,0.11605496,0.788960755,-0.300252289
4.71,-0.053,1.0399,0.2774,0.290771723,0.961399496,-0.130542681,0.11605496,0.788960755,-0.300252289
4.71,-0.0547,1.1088,0.2456,0.290771723,0.961399496,-0.130542681,0.11605496,0.788960755,-0.300252289
4.711,-0.1454,1.1428,0.2112,0.290771723,0.961399496,-0.130542681,0.11605496,0.788960755,-0.300252289
4.711,-0.1469,1.0479,0.2011,0.290771723,0.961399496,-0.130542681,0.11605496,0.788960755,-0.300252289
4.711,-0.1266,0.9468,0.2402,0.290771723,0.961399496,-0.130542681,0.11605496,0.788960755,-0.300252289
4.712,-0.1266,0.9468,0.2402,0.290771723,0.961399496,-0.130542681,0.18739149,0.631381571,-0.289605051
4.712,-0.1266,0.9468,0.2402,0.290771723,0.961399496,-0.130542681,0.202297643,0.410983622,-0.315158427
4.712,-0.1266,0.9468,0.2402,0.290771723,0.961399496,-0.130542681,0.184197322,0.17780897,-0.380106598
4.713,-0.1266,0.9468,0.2402,0.290771723,0.961399496,-0.130542681,0.168226451,-0.045783151,-0.456766784
4.713,-0.1266,0.9468,0.2402,0.290771723,0.961399496,-0.130542681,0.156514481,-0.277893066,-0.531297505
4.713,-0.1266,0.9468,0.2402,0.290771723,0.961399496,-0.130542681,0.125637487,-0.544074178,-0.604763448
4.713,-0.1266,0.9468,0.2402,0.290771723,0.961399496,-0.130542681,0.079854332,-0.815578878,-0.679294169
4.714,-0.1266,0.9468,0.2402,0.290771723,0.961399496,-0.130542681,0.048977323,-1.054077148,-0.718688965
4.714,-0.1266,0.9468,0.2402,0.290771723,0.961399496,-0.130542681,0.048977323,-1.054077148,-0.718688965
4.714,-0.1266,0.9468,0.2402,-0.654643714,0.710592449,-0.912405133,0.048977323,-1.054077148,-0.718688965
4.789,-0.1158,0.8732,0.2554,-0.654643714,0.710592449,-0.912405133,0.048977323,-1.054077148,-0.718688965
4.79,-0.0853,0.8236,0.2551,-0.654643714,0.710592449,-0.912405133,0.048977323,-1.054077148,-0.718688965
4.79,-0.0743,0.7945,0.2302,-0.654643714,0.710592449,-0.912405133,0.048977323,-1.054077148,-0.718688965
4.79,-0.0577,0.8111,0.1757,-0.654643714,0.710592449,-0.912405133,0.048977323,-1.054077148,-0.718688965
4.791,-0.0577,0.8111,0.1757,-0.654643714,0.710592449,-0.912405133,0.013841418,-1.209526896,-0.708041728
4.791,-0.0577,0.8111,0.1757,-0.654643714,0.710592449,-0.912405133,-0.028747559,-1.306416869,-0.675035298
4.791,-0.0577,0.8111,0.1757,-0.654643714,0.710592449,-0.912405133,-0.081983782,-1.340488076,-0.633511007
4.791,-0.0577,0.8111,0.1757,-0.654643714,0.710592449,-0.912405133,-0.132025823,-1.305352092,-0.618604898
4.792,-0.0577,0.8111,0.1757,-0.654643714,0.710592449,-0.912405133,-0.147996694,-1.230821371,-0.594116211
4.792,-0.0577,0.8111,0.1757,-0.654643714,0.710592449,-0.912405133,-0.169291183,-1.124348998,-0.55259198
4.792,-0.0577,0.8111,0.1757,-0.654643714,0.710592449,-0.912405133,-0.206556529,-1.007229328,-0.527038574
4.793,-0.0577,0.8111,0.1757,-0.654643714,0.710592449,-0.912405133,-0.233174652,-0.87520349,-0.514261901
4.793,-0.0577,0.8111,0.1757,-0.654643714,0.710592449,-0.912405133,-0.233174652,-0.87520349,-0.514261901
4.793,-0.0577,0.8111,0.1757,0.240811974,-1.423227429,-1.001519918,-0.233174652,-0.87520349,-0.514261901
4.841,-0.0577,0.8111,0.1757,0.240811974,-1.423227429,-1.001519918,-0.233174652,-0.87520349,-0.514261901
4.868,-0.0821,0.8453,0.1442,0.240811974,-1.423227429,-1.001519918,-0.233174652,-0.87520349,-0.514261901
4.869,-0.098,0.8734,0.1234,0.240811974,-1.423227429,-1.001519918,-0.233174652,-0.87520349,-0.514261901
4.869,-0.1036,0.8891,0.109,0.240811974,-1.423227429,-1.001519918,-0.233174652,-0.87520349,-0.514261901
4.87,-0.1066,0.9116,0.1205,0.240811974,-1.423227429,-1.001519918,-0.233174652,-0.87520349,-0.514261901
4.871,-0.1066,0.9116,0.1205,0.240811974,-1.423227429,-1.001519918,-0.237433538,-0.741048157,-0.492967397
4.871,-0.1066,0.9116,0.1205,0.240811974,-1.423227429,-1.001519918,-0.23423937,-0.645222962,-0.47273764
4.872,-0.1066,0.9116,0.1205,0.240811974,-1.423227429,-1.001519918,-0.226786301,-0.597310364,-0.4493137
4.873,-0.1066,0.9116,0.1205,0.240811974,-1.423227429,-1.001519918,-0.227851018,-0.585598409,-0.443990082
4.873,-0.1066,0.9116,0.1205,0.240811974,-1.423227429,-1.001519918,-0.215074331,-0.631381571,-0.445054799
4.874,-0.1066,0.9116,0.1205,0.240811974,-1.423227429,-1.001519918,-0.221462682,-0.702718079,-0.441860616
4.875,-0.1066,0.9116,0.1205,0.240811974,-1.423227429,-1.001519918,-0.239562988,-0.787896037,-0.456766784
4.875,-0.1066,0.9116,0.1205,0.240811974,-1.423227429,-1.001519918,-0.255533844,-0.915663004,-0.471672922
4.876,-0.1066,0.9116,0.1205,0.240811974,-1.423227429,-1.001519918,-0.255533844,-0.915663004,-0.471672922
4.877,-0.1066,0.9116,0.1205,0.062371228,-0.378343999,-2.229575157,-0.255533844,-0.915663004,-0.471672922
4.908,-0.1066,0.9116,0.1205,0.062371228,-0.378343999,-2.229575157,-0.255533844,-0.915663004,-0.471672922
4.949,-0.1114,0.9218,0.1496,0.062371228,-0.378343999,-2.229575157,-0.255533844,-0.915663004,-0.471672922
4.95,-0.0987,0.9629,0.1725,0.062371228,-0.378343999,-2.229575157,-0.255533844,-0.915663004,-0.471672922
4.95,-0.0687,0.9854,0.1608,0.062371228,-0.378343999,-2.229575157,-0.255533844,-0.915663004,-0.471672922
4.951,-0.02,0.9974,0.1547,0.062371228,-0.378343999,-2.229575157,-0.255533844,-0.915663004,-0.471672922
4.952,-0.02,0.9974,0.1547,0.062371228,-0.378343999,-2.229575157,-0.27150473,-1.070047975,-0.468478739
4.953,-0.02,0.9974,0.1547,0.062371228,-0.378343999,-2.229575157,-0.302381724,-1.215915322,-0.452507883
5.174,-0.02,0.9974,0.1547,0.062371228,-0.378343999,-2.229575157,-0.343905985,-1.355394125,-0.426954478
5.174,-0.02,0.9974,0.1547,0.062371228,-0.378343999,-2.229575157,-0.382236063,-1.486355305,-0.398206919
5.174,-0.02,0.9974,0.1547,0.062371228,-0.378343999,-2.229575157,-0.404595286,-1.564080119,-0.353488505
5.174,-0.02,0.9974,0.1547,0.062371228,-0.378343999,-2.229575157,-0.422695577,-1.561950684,-0.303446442
5.174,-0.02,0.9974,0.1547,0.062371228,-0.378343999,-2.229575157,-0.420566142,-1.48848474,-0.282151967
5.175,-0.02,0.9974,0.1547,0.062371228,-0.378343999,-2.229575157,-0.399271637,-1.364976645,-0.289605051
5.175,-0.02,0.9974,0.1547,0.062371228,-0.378343999,-2.229575157,-0.399271637,-1.364976645,-0.289605051
5.175,-0.02,0.9974,0.1547,0.435930401,0.529012442,-1.796025157,-0.399271637,-1.364976645,-0.289605051
5.175,-0.0599,1.0362,0.2204,0.435930401,0.529012442,-1.796025157,-0.399271637,-1.364976645,-0.289605051
5.175,-0.1325,1.0729,0.2945,0.435930401,0.529012442,-1.796025157,-0.399271637,-1.364976645,-0.289605051
5.175,-0.184,1.0944,0.3143,0.435930401,0.529012442,-1.796025157,-0.399271637,-1.364976645,-0.289605051
5.175,-0.2082,1.0927,0.3238,0.435930401,0.529012442,-1.796025157,-0.399271637,-1.364976645,-0.289605051
5.176,-0.2082,1.0927,0.3238,0.435930401,0.529012442,-1.796025157,-0.377977163,-1.210591674,-0.322611481
5.176,-0.2082,1.0927,0.3238,0.435930401,0.529012442,-1.796025157,-0.343905985,-1.088148355,-0.360941559
5.176,-0.2082,1.0927,0.3238,0.435930401,0.529012442,-1.796025157,-0.323676229,-1.006164551,-0.380106598
5.176,-0.2082,1.0927,0.3238,0.435930401,0.529012442,-1.796025157,-0.321546763,-0.97848171,-0.390753865
5.176,-0.2082,1.0927,0.3238,0.435930401,0.529012442,-1.796025157,-0.349229604,-1.012552857,-0.374782979
5.176,-0.2082,1.0927,0.3238,0.435930401,0.529012442,-1.796025157,-0.437601745,-1.059400797,-0.350294322
5.177,-0.2082,1.0927,0.3238,0.435930401,0.529012442,-1.796025157,-0.537685812,-1.134996176,-0.28534615
5.177,-0.2082,1.0927,0.3238,0.435930401,0.529012442,-1.796025157,-0.670776367,-1.208462238,-0.202297643
5.177,-0.2082,1.0927,0.3238,0.435930401,0.529012442,-1.796025157,-0.670776367,-1.208462238,-0.202297643
5.177,-0.2082,1.0927,0.3238,-1.006062388,1.684831858,-0.597763777,-0.670776367,-1.208462238,-0.202297643
5.177,-0.2082,1.0927,0.3238,-1.006062388,1.684831858,-0.597763777,-0.670776367,-1.208462238,-0.202297643
5.177,-0.1669,1.1042,0.3957,-1.006062388,1.684831858,-0.597763777,-0.670776367,-1.208462238,-0.202297643
5.177,-0.0261,1.1701,0.4822,-1.006062388,1.684831858,-0.597763777,-0.670776367,-1.208462238,-0.202297643
5.178,0.1625,1.0758,0.5711,-1.006062388,1.684831858,-0.597763777,-0.670776367,-1.208462238,-0.202297643
5.178,0.2339,0.8815,0.6447,-1.006062388,1.684831858,-0.597763777,-0.670776367,-1.208462238,-0.202297643
5.178,0.2339,0.8815,0.6447,-1.006062388,1.684831858,-0.597763777,-0.762342691,-1.338358521,-0.11605496
5.178,0.2339,0.8815,0.6447,-1.006062388,1.684831858,-0.597763777,-0.815578878,-1.505520344,0
5.178,0.2339,0.8815,0.6447,-1.006062388,1.684831858,-0.597763777,-0.831549764,-1.702494383,0.153320313
5.178,0.2339,0.8815,0.6447,-1.006062388,1.684831858,-0.597763777,-0.852844238,-1.925021768,0.298122823
5.178,0.2339,0.8815,0.6447,-1.006062388,1.684831858,-0.597763777,-0.873073995,-2.186944008,0.358812124
5.179,0.2339,0.8815,0.6447,-1.006062388,1.684831858,-0.597763777,-0.894368529,-2.415859699,0.321546763
5.179,0.2339,0.8815,0.6447,-1.006062388,1.684831858,-0.597763777,-0.883721232,-2.577697754,0.22465685
5.18,0.2339,0.8815,0.6447,-1.006062388,1.684831858,-0.597763777,-0.832614481,-2.670328856,0.171420634
5.18,0.2339,0.8815,0.6447,-1.006062388,1.684831858,-0.597763777,-0.832614481,-2.670328856,0.171420634
5.18,0.2339,0.8815,0.6447,-1.006062388,1.684831858,-0.597763777,-0.832614481,-2.670328856,0.171420634
5.18,0.2339,0.8815,0.6447,2.08214426,1.025515556,1.504503608,-0.832614481,-2.670328856,0.171420634
5.185,0.2867,0.8026,0.6398,2.08214426,1.025515556,1.504503608,-0.832614481,-2.670328856,0.171420634
5.185,0.414,0.7904,0.6222,2.08214426,1.025515556,1.504503608,-0.832614481,-2.670328856,0.171420634
5.186,0.4736,0.8546,0.6738,2.08214426,1.025515556,1.504503608,-0.832614481,-2.670328856,0.171420634
5.186,0.4734,0.9074,0.6701,2.08214426,1.025515556,1.504503608,-0.832614481,-2.670328856,0.171420634
5.186,0.4734,0.9074,0.6701,2.08214426,1.025515556,1.504503608,-0.751695454,-2.690558672,0.205491811
5.186,0.4734,0.9074,0.6701,2.08214426,1.025515556,1.504503608,-0.677164733,-2.595798016,0.286410868
5.186,0.4734,0.9074,0.6701,2.08214426,1.025515556,1.504503608,-0.614345968,-2.333875895,0.334323466
5.186,0.4734,0.9074,0.6701,2.08214426,1.025515556,1.504503608,-0.537685812,-1.949510336,0.333258748
5.186,0.4734,0.9074,0.6701,2.08214426,1.025515556,1.504503608,-0.45889622,-1.515102863,0.286410868
5.186,0.4734,0.9074,0.6701,2.08214426,1.025515556,1.504503608,-0.35561794,-1.107313395,0.22465685
5.187,0.4734,0.9074,0.6701,2.08214426,1.025515556,1.504503608,-0.235304087,-0.748501241,0.18952094
5.187,0.4734,0.9074,0.6701,2.08214426,1.025515556,1.504503608,-0.12031386,-0.430148661,0.170355901
5.188,0.4734,0.9074,0.6701,2.08214426,1.025515556,1.504503608,-0.12031386,-0.430148661,0.170355901
5.189,0.4734,0.9074,0.6701,3.949860334,0.034751035,1.848558664,-0.12031386,-0.430148661,0.170355901
5.238,0.4734,0.9074,0.6701,3.949860334,0.034751035,1.848558664,-0.12031386,-0.430148661,0.170355901
5.265,0.4907,0.9133,0.663,3.949860334,0.034751035,1.848558664,-0.12031386,-0.430148661,0.170355901
5.266,0.4059,0.9433,0.6924,3.949860334,0.034751035,1.848558664,-0.12031386,-0.430148661,0.170355901
5.266,0.184,0.9289,0.6572,3.949860334,0.034751035,1.848558664,-0.12031386,-0.430148661,0.170355901
5.266,0.044,0.8708,0.6124,3.949860334,0.034751035,1.848558664,-0.12031386,-0.430148661,0.170355901
5.266,0.044,0.8708,0.6124,3.949860334,0.034751035,1.848558664,-0.040459529,-0.167161733,0.154385045
5.267,0.044,0.8708,0.6124,3.949860334,0.034751035,1.848558664,0.019165039,0.046847872,0.150126144
5.267,0.044,0.8708,0.6124,3.949860334,0.034751035,1.848558664,0.059624568,0.227851018,0.143737793
5.267,0.044,0.8708,0.6124,3.949860334,0.034751035,1.848558664,0.10434299,0.366265208,0.107537165
5.267,0.044,0.8708,0.6124,3.949860334,0.034751035,1.848558664,0.137349442,0.42588976,0.056430392
5.267,0.044,0.8708,0.6124,3.949860334,0.034751035,1.848558664,0.128831655,0.420566142,0.025553387
5.268,0.044,0.8708,0.6124,3.949860334,0.034751035,1.848558664,0.101148821,0.375847727,0.012776693
5.268,0.044,0.8708,0.6124,3.949860334,0.034751035,1.848558664,0.061754014,0.293863922,0.018100316
5.268,0.044,0.8708,0.6124,3.949860334,0.034751035,1.848558664,0.061754014,0.293863922,0.018100316
5.268,0.044,0.8708,0.6124,0.475758374,0.281521767,1.524345517,0.061754014,0.293863922,0.018100316
5.305,0.044,0.8708,0.6124,0.475758374,0.281521767,1.524345517,0.061754014,0.293863922,0.018100316
5.346,0.0083,0.8014,0.5694,0.475758374,0.281521767,1.524345517,0.061754014,0.293863922,0.018100316
5.347,0.0222,0.7552,0.5469,0.475758374,0.281521767,1.524345517,0.061754014,0.293863922,0.018100316
5.348,0.0357,0.7495,0.5015,0.475758374,0.281521767,1.524345517,0.061754014,0.293863922,0.018100316
5.349,0.0606,0.7395,0.4284,0.475758374,0.281521767,1.524345517,0.061754014,0.293863922,0.018100316
5.349,0.0606,0.7395,0.4284,0.475758374,0.281521767,1.524345517,-0.005323622,0.170355901,0.037265353
5.35,0.0606,0.7395,0.4284,0.475758374,0.281521767,1.524345517,-0.085177951,0.020229764,0.057495117
5.351,0.0606,0.7395,0.4284,0.475758374,0.281521767,1.524345517,-0.165032282,-0.139478892,0.062818743
5.352,0.0606,0.7395,0.4284,0.475758374,0.281521767,1.524345517,-0.229980469,-0.292799205,0.042588975
5.352,0.0606,0.7395,0.4284,0.475758374,0.281521767,1.524345517,-0.28108725,-0.413113058,-0.004258898
5.353,0.0606,0.7395,0.4284,0.475758374,0.281521767,1.524345517,-0.316223145,-0.494032115,-0.058559842
5.354,0.0606,0.7395,0.4284,0.475758374,0.281521767,1.524345517,-0.348164886,-0.524909139,-0.103278264
5.355,0.0606,0.7395,0.4284,0.475758374,0.281521767,1.524345517,-0.371588826,-0.5057441,-0.132025823
5.357,0.0606,0.7395,0.4284,0.475758374,0.281521767,1.524345517,-0.371588826,-0.5057441,-0.132025823
5.358,0.0606,0.7395,0.4284,-0.313194484,-1.204799652,-0.248754144,-0.371588826,-0.5057441,-0.132025823
5.424,0.0826,0.7153,0.3998,-0.313194484,-1.204799652,-0.248754144,-0.371588826,-0.5057441,-0.132025823
5.425,0.067,0.6906,0.4008,-0.313194484,-1.204799652,-0.248754144,-0.371588826,-0.5057441,-0.132025823
5.426,0.0528,0.7097,0.4169,-0.313194484,-1.204799652,-0.248754144,-0.371588826,-0.5057441,-0.132025823
5.426,0.0601,0.7332,0.4404,-0.313194484,-1.204799652,-0.248754144,-0.371588826,-0.5057441,-0.132025823
5.427,0.0601,0.7332,0.4404,-0.313194484,-1.204799652,-0.248754144,-0.377977163,-0.45889622,-0.157579213
5.428,0.0601,0.7332,0.4404,-0.313194484,-1.204799652,-0.248754144,-0.374782979,-0.408854187,-0.186326772
5.429,0.0601,0.7332,0.4404,-0.313194484,-1.204799652,-0.248754144,-0.369459361,-0.371588826,-0.214009613
5.43,0.0601,0.7332,0.4404,-0.313194484,-1.204799652,-0.248754144,-0.357747406,-0.35135904,-0.238498271
5.431,0.0601,0.7332,0.4404,-0.313194484,-1.204799652,-0.248754144,-0.350294322,-0.369459361,-0.256598592
5.431,0.0601,0.7332,0.4404,-0.313194484,-1.204799652,-0.248754144,-0.362006307,-0.406724721,-0.268310547
5.432,0.0601,0.7332,0.4404,-0.313194484,-1.204799652,-0.248754144,-0.369459361,-0.439731181,-0.299187571
5.433,0.0601,0.7332,0.4404,-0.313194484,-1.204799652,-0.248754144,-0.360941559,-0.506808817,-0.338582367
5.434,0.0601,0.7332,0.4404,-0.313194484,-1.204799652,-0.248754144,-0.360941559,-0.506808817,-0.338582367
5.436,0.0601,0.7332,0.4404,-0.242313623,-1.301839352,-0.841068685,-0.360941559,-0.506808817,-0.338582367
5.437,0.0601,0.7332,0.4404,-0.242313623,-1.301839352,-0.841068685,-0.360941559,-0.506808817,-0.338582367
5.505,0.0902,0.753,0.4316,-0.242313623,-1.301839352,-0.841068685,-0.360941559,-0.506808817,-0.338582367
5.506,0.1518,0.7982,0.4624,-0.242313623,-1.301839352,-0.841068685,-0.360941559,-0.506808817,-0.338582367
5.508,0.1415,0.7906,0.4551,-0.242313623,-1.301839352,-0.841068685,-0.360941559,-0.506808817,-0.338582367
5.694,0.1278,0.7764,0.481,-0.242313623,-1.301839352,-0.841068685,-0.360941559,-0.506808817,-0.338582367
5.695,0.1278,0.7764,0.481,-0.242313623,-1.301839352,-0.841068685,-0.36520046,-0.568562806,-0.353488505
5.695,0.1278,0.7764,0.481,-0.242313623,-1.301839352,-0.841068685,-0.364135742,-0.598375142,-0.334323466
5.695,0.1278,0.7764,0.481,-0.242313623,-1.301839352,-0.841068685,-0.367329925,-0.619669616,-0.303446442
5.695,0.1278,0.7764,0.481,-0.242313623,-1.301839352,-0.841068685,-0.370524079,-0.652676046,-0.302381724
5.695,0.1278,0.7764,0.481,-0.242313623,-1.301839352,-0.841068685,-0.375847727,-0.679294169,-0.362006307
5.695,0.1278,0.7764,0.481,-0.242313623,-1.301839352,-0.841068685,-0.383300781,-0.670776367,-0.4493137
5.695,0.1278,0.7764,0.481,-0.242313623,-1.301839352,-0.841068685,-0.384365499,-0.676100016,-0.506808817
5.695,0.1278,0.7764,0.481,-0.242313623,-1.301839352,-0.841068685,-0.381171346,-0.728271484,-0.49616158
5.696,0.1278,0.7764,0.481,-0.242313623,-1.301839352,-0.841068685,-0.381171346,-0.728271484,-0.49616158
5.696,0.1278,0.7764,0.481,-0.242313623,-1.301839352,-0.841068685,-0.381171346,-0.728271484,-0.49616158
5.696,0.1552,0.8299,0.5416,-0.242313623,-1.301839352,-0.841068685,-0.381171346,-0.728271484,-0.49616158
5.696,0.1703,0.9086,0.5225,-0.242313623,-1.301839352,-0.841068685,-0.381171346,-0.728271484,-0.49616158
5.696,0.2253,0.9311,0.5181,-0.242313623,-1.301839352,-0.841068685,-0.381171346,-0.728271484,-0.49616158
5.696,0.2742,0.925,0.5733,-0.242313623,-1.301839352,-0.841068685,-0.381171346,-0.728271484,-0.49616158
5.696,0.2742,0.925,0.5733,-0.242313623,-1.301839352,-0.841068685,-0.36520046,-0.839002848,-0.443990082
5.696,0.2742,0.925,0.5733,-0.242313623,-1.301839352,-0.841068685,-0.35135904,-0.964640319,-0.401401103
5.697,0.2742,0.925,0.5733,-0.242313623,-1.301839352,-0.841068685,-0.337517649,-1.065789104,-0.408854187
5.697,0.2742,0.925,0.5733,-0.242313623,-1.301839352,-0.841068685,-0.326870382,-1.112637043,-0.450378418
5.697,0.2742,0.925,0.5733,-0.242313623,-1.301839352,-0.841068685,-0.325805664,-1.097730875,-0.474867076
5.697,0.2742,0.925,0.5733,-0.242313623,-1.301839352,-0.841068685,-0.333258748,-1.089213014,-0.487643778
5.697,0.2742,0.925,0.5733,-0.242313623,-1.301839352,-0.841068685,-0.336452901,-1.152031779,-0.51958549
5.697,0.2742,0.925,0.5733,-0.242313623,-1.301839352,-0.841068685,-0.34177652,-1.222303629,-0.556850851
5.697,0.2742,0.925,0.5733,-0.242313623,-1.301839352,-0.841068685,-0.34177652,-1.222303629,-0.556850851
5.697,0.2742,0.925,0.5733,0.509093583,-0.569506943,-0.655686736,-0.34177652,-1.222303629,-0.556850851
5.697,0.2742,0.925,0.5733,0.509093583,-0.569506943,-0.655686736,-0.34177652,-1.222303629,-0.556850851
5.698,0.2889,0.9167,0.5733,0.509093583,-0.569506943,-0.655686736,-0.34177652,-1.222303629,-0.556850851
5.698,0.2859,0.9509,0.6308,0.509093583,-0.569506943,-0.655686736,-0.34177652,-1.222303629,-0.556850851
5.698,0.22,0.9805,0.6704,0.509093583,-0.569506943,-0.655686736,-0.34177652,-1.222303629,-0.556850851
5.698,0.2275,1.0328,0.7207,0.509093583,-0.569506943,-0.655686736,-0.34177652,-1.222303629,-0.556850851
5.698,0.2275,1.0328,0.7207,0.509093583,-0.569506943,-0.655686736,-0.360941559,-1.242533326,-0.574951172
5.698,0.2275,1.0328,0.7207,0.509093583,-0.569506943,-0.655686736,-0.405660003,-1.247856975,-0.563239217
5.698,0.2275,1.0328,0.7207,0.509093583,-0.569506943,-0.655686736,-0.459960938,-1.23614502,-0.554721415
5.698,0.2275,1.0328,0.7207,0.509093583,-0.569506943,-0.655686736,-0.480190694,-1.23614502,-0.570692301
5.699,0.2275,1.0328,0.7207,0.509093583,-0.569506943,-0.655686736,-0.481255442,-1.194620728,-0.550462544
5.699,0.2275,1.0328,0.7207,0.509093583,-0.569506943,-0.655686736,-0.455702037,-1.117960572,-0.486579061
5.699,0.2275,1.0328,0.7207,0.509093583,-0.569506943,-0.655686736,-0.373718262,-1.094536662,-0.414177805
5.699,0.2275,1.0328,0.7207,0.509093583,-0.569506943,-0.655686736,-0.300252289,-1.046624064,-0.398206919
5.699,0.2275,1.0328,0.7207,0.509093583,-0.569506943,-0.655686736,-0.300252289,-1.046624064,-0.398206919
5.699,0.2275,1.0328,0.7207,1.527412295,0.964978933,-0.042120934,-0.300252289,-1.046624064,-0.398206919
5.704,0.2275,1.0328,0.7207,1.527412295,0.964978933,-0.042120934,-0.300252289,-1.046624064,-0.398206919
5.742,0.1994,0.9275,0.6801,1.527412295,0.964978933,-0.042120934,-0.300252289,-1.046624064,-0.398206919
5.742,0.1342,0.7943,0.7561,1.527412295,0.964978933,-0.042120934,-0.300252289,-1.046624064,-0.398206919
5.742,0.0926,0.6909,0.7559,1.527412295,0.964978933,-0.042120934,-0.300252289,-1.046624064,-0.398206919
5.742,0.0772,0.8339,0.7896,1.527412295,0.964978933,-0.042120934,-0.300252289,-1.046624064,-0.398206919
5.742,0.0772,0.8339,0.7896,1.527412295,0.964978933,-0.042120934,-0.275763631,-0.946539998,-0.437601745
5.742,0.0772,0.8339,0.7896,1.527412295,0.964978933,-0.042120934,-0.280022532,-0.846455932,-0.421630859
5.742,0.0772,0.8339,0.7896,1.527412295,0.964978933,-0.042120934,-0.277893066,-0.816643596,-0.401401103
5.742,0.0772,0.8339,0.7896,1.527412295,0.964978933,-0.042120934,-0.243821889,-0.874138713,-0.413113058
5.743,0.0772,0.8339,0.7896,1.527412295,0.964978933,-0.042120934,-0.238498271,-0.87094456,-0.386494964
5.743,0.0772,0.8339,0.7896,1.527412295,0.964978933,-0.042120934,-0.217203781,-0.803866923,-0.324740946
5.743,0.0772,0.8339,0.7896,1.527412295,0.964978933,-0.042120934,-0.127766922,-0.746371806,-0.223592132
5.743,0.0772,0.8339,0.7896,1.527412295,0.964978933,-0.042120934,0.00958252,-0.66012913,-0.11818441
5.744,0.0772,0.8339,0.7896,1.527412295,0.964978933,-0.042120934,0.00958252,-0.66012913,-0.11818441
5.744,0.0772,0.8339,0.7896,1.080585003,1.905228615,1.26423192,0.00958252,-0.66012913,-0.11818441
5.824,0.1439,0.916,0.7258,1.080585003,1.905228615,1.26423192,0.00958252,-0.66012913,-0.11818441
5.824,0.2031,0.9778,0.7417,1.080585003,1.905228615,1.26423192,0.00958252,-0.66012913,-0.11818441
5.825,0.2434,0.9292,0.7063,1.080585003,1.905228615,1.26423192,0.00958252,-0.66012913,-0.11818441
5.825,0.2913,0.8886,0.6963,1.080585003,1.905228615,1.26423192,0.00958252,-0.66012913,-0.11818441
5.825,0.2913,0.8886,0.6963,1.080585003,1.905228615,1.26423192,0.124572754,-0.54300946,-0.058559842
5.825,0.2913,0.8886,0.6963,1.080585003,1.905228615,1.26423192,0.202297643,-0.468478739,-0.040459529
5.825,0.2913,0.8886,0.6963,1.080585003,1.905228615,1.26423192,0.28534615,-0.488708496,-0.029812284
5.825,0.2913,0.8886,0.6963,1.080585003,1.905228615,1.26423192,0.35135904,-0.565368652,-0.035135906
5.825,0.2913,0.8886,0.6963,1.080585003,1.905228615,1.26423192,0.381171346,-0.680358887,-0.080919057
5.825,0.2913,0.8886,0.6963,1.080585003,1.905228615,1.26423192,0.384365499,-0.797478557,-0.110731341
5.825,0.2913,0.8886,0.6963,1.080585003,1.905228615,1.26423192,0.406724721,-0.878397644,-0.09263102
5.826,0.2913,0.8886,0.6963,1.080585003,1.905228615,1.26423192,0.455702037,-0.916727722,-0.052171495
5.826,0.2913,0.8886,0.6963,1.080585003,1.905228615,1.26423192,0.455702037,-0.916727722,-0.052171495
5.826,0.2913,0.8886,0.6963,-0.447138339,-0.332918972,1.948102355,0.455702037,-0.916727722,-0.052171495
5.838,0.2913,0.8886,0.6963,-0.447138339,-0.332918972,1.948102355,0.455702037,-0.916727722,-0.052171495
5.901,0.262,0.85,0.6134,-0.447138339,-0.332918972,1.948102355,0.455702037,-0.916727722,-0.052171495
5.902,0.2534,0.8588,0.5548,-0.447138339,-0.332918972,1.948102355,0.455702037,-0.916727722,-0.052171495
5.902,0.2713,0.8419,0.4959,-0.447138339,-0.332918972,1.948102355,0.455702037,-0.916727722,-0.052171495
5.903,0.2632,0.7703,0.4773,-0.447138339,-0.332918972,1.948102355,0.455702037,-0.916727722,-0.052171495
5.903,0.2632,0.7703,0.4773,-0.447138339,-0.332918972,1.948102355,0.488708496,-0.892239034,-0.022359213
5.904,0.2632,0.7703,0.4773,-0.447138339,-0.332918972,1.948102355,0.517456055,-0.826226115,-0.005323622
5.904,0.2632,0.7703,0.4773,-0.447138339,-0.332918972,1.948102355,0.53342694,-0.752760172,0.027682835
5.904,0.2632,0.7703,0.4773,-0.447138339,-0.332918972,1.948102355,0.541944742,-0.700588644,0.074530706
5.905,0.2632,0.7703,0.4773,-0.447138339,-0.332918972,1.948102355,0.53342694,-0.662258565,0.105407715
5.905,0.2632,0.7703,0.4773,-0.447138339,-0.332918972,1.948102355,0.489773214,-0.634575725,0.103278264
5.906,0.2632,0.7703,0.4773,-0.447138339,-0.332918972,1.948102355,0.417371958,-0.631381571,0.079854332
5.906,0.2632,0.7703,0.4773,-0.447138339,-0.332918972,1.948102355,0.36520046,-0.644158244,0.048977323
5.907,0.2632,0.7703,0.4773,-0.447138339,-0.332918972,1.948102355,0.36520046,-0.644158244,0.048977323
5.907,0.2632,0.7703,0.4773,1.161595106,0.82267046,1.458630204,0.36520046,-0.644158244,0.048977323
5.908,0.2632,0.7703,0.4773,1.161595106,0.82267046,1.458630204,0.36520046,-0.644158244,0.048977323
5.98,0.1975,0.7495,0.4529,1.161595106,0.82267046,1.458630204,0.36520046,-0.644158244,0.048977323
5.981,0.1415,0.7275,0.3996,1.161595106,0.82267046,1.458630204,0.36520046,-0.644158244,0.048977323
5.982,0.0855,0.7478,0.3773,1.161595106,0.82267046,1.458630204,0.36520046,-0.644158244,0.048977323
5.983,0.0662,0.8031,0.3245,1.161595106,0.82267046,1.458630204,0.36520046,-0.644158244,0.048977323
5.984,0.0662,0.8031,0.3245,1.161595106,0.82267046,1.458630204,0.336452901,-0.63670522,0.029812284
5.984,0.0662,0.8031,0.3245,1.161595106,0.82267046,1.458630204,0.295993388,-0.606892884,0.013841418
5.985,0.0662,0.8031,0.3245,1.161595106,0.82267046,1.458630204,0.243821889,-0.554721415,-0.010647244
5.986,0.0662,0.8031,0.3245,1.161595106,0.82267046,1.458630204,0.208685979,-0.478061259,-0.04152425
5.987,0.0662,0.8031,0.3245,1.161595106,0.82267046,1.458630204,0.188456222,-0.41204834,-0.076660156
5.988,0.0662,0.8031,0.3245,1.161595106,0.82267046,1.458630204,0.170355901,-0.370524079,-0.091566302
5.988,0.0662,0.8031,0.3245,1.161595106,0.82267046,1.458630204,0.134155273,-0.303446442,-0.073465981
5.989,0.0662,0.8031,0.3245,1.161595106,0.82267046,1.458630204,0.101148821,-0.23636882,-0.060689293
5.99,0.0662,0.8031,0.3245,1.161595106,0.82267046,1.458630204,0.101148821,-0.23636882,-0.060689293
5.991,0.0662,0.8031,0.3245,0.764032125,-0.432351708,-0.236605689,0.101148821,-0.23636882,-0.060689293
6.036,0.0662,0.8031,0.3245,0.764032125,-0.432351708,-0.236605689,0.101148821,-0.23636882,-0.060689293
6.266,0.088,0.8192,0.3214,0.764032125,-0.432351708,-0.236605689,0.101148821,-0.23636882,-0.060689293
6.266,0.0606,0.8194,0.3402,0.764032125,-0.432351708,-0.236605689,0.101148821,-0.23636882,-0.060689293
6.266,0.0171,0.8759,0.3426,0.764032125,-0.432351708,-0.236605689,0.101148821,-0.23636882,-0.060689293
6.266,0.012,0.8842,0.3319,0.764032125,-0.432351708,-0.236605689,0.101148821,-0.23636882,-0.060689293
6.266,0.012,0.8842,0.3319,0.764032125,-0.432351708,-0.236605689,0.075595431,-0.190585673,-0.072401263
6.267,0.012,0.8842,0.3319,0.764032125,-0.432351708,-0.236605689,0.062818743,-0.18739149,-0.11818441
6.267,0.012,0.8842,0.3319,0.764032125,-0.432351708,-0.236605689,0.050042048,-0.225721568,-0.173550084
6.267,0.012,0.8842,0.3319,0.764032125,-0.432351708,-0.236605689,0.059624568,-0.301317006,-0.208685979
6.267,0.012,0.8842,0.3319,0.764032125,-0.432351708,-0.236605689,0.068142362,-0.418436706,-0.206556529
6.267,0.012,0.8842,0.3319,0.764032125,-0.432351708,-0.236605689,0.068142362,-0.567498088,-0.19910346
6.267,0.012,0.8842,0.3319,0.764032125,-0.432351708,-0.236605689,0.050042048,-0.699523926,-0.198038742
6.268,0.012,0.8842,0.3319,0.764032125,-0.432351708,-0.236605689,0.008517795,-0.850714803,-0.192715123
6.268,0.012,0.8842,0.3319,0.764032125,-0.432351708,-0.236605689,0.008517795,-0.850714803,-0.192715123
6.268,0.012,0.8842,0.3319,-1.30077672,-0.657639205,-1.389540553,0.008517795,-0.850714803,-0.192715123
6.268,0.012,0.8842,0.3319,-1.30077672,-0.657639205,-1.389540553,0.008517795,-0.850714803,-0.192715123
6.268,0.0264,0.8879,0.3715,-1.30077672,-0.657639205,-1.389540553,0.008517795,-0.850714803,-0.192715123
6.268,0.0662,0.8756,0.3717,-1.30077672,-0.657639205,-1.389540553,0.008517795,-0.850714803,-0.192715123
6.269,0.1198,0.8708,0.3595,-1.30077672,-0.657639205,-1.389540553,0.008517795,-0.850714803,-0.192715123
6.269,0.2085,0.9316,0.3211,-1.30077672,-0.657639205,-1.389540553,0.008517795,-0.850714803,-0.192715123
6.269,0.2085,0.9316,0.3211,-1.30077672,-0.657639205,-1.389540553,-0.045783151,-1.042365193,-0.163967565
6.269,0.2085,0.9316,0.3211,-1.30077672,-0.657639205,-1.389540553,-0.078789607,-1.227627277,-0.119249135
6.269,0.2085,0.9316,0.3211,-1.30077672,-0.657639205,-1.389540553,-0.132025823,-1.4043715,-0.09263102
6.269,0.2085,0.9316,0.3211,-1.30077672,-0.657639205,-1.389540553,-0.19910346,-1.560886025,-0.087307401
6.269,0.2085,0.9316,0.3211,-1.30077672,-0.657639205,-1.389540553,-0.221462682,-1.639675617,-0.050042048
6.27,0.2085,0.9316,0.3211,-1.30077672,-0.657639205,-1.389540553,-0.205491811,-1.696105957,0.043653701
6.27,0.2085,0.9316,0.3211,-1.30077672,-0.657639205,-1.389540553,-0.235304087,-1.770636678,0.172485352
6.27,0.2085,0.9316,0.3211,-1.30077672,-0.657639205,-1.389540553,-0.256598592,-1.75573051,0.287475586
6.27,0.2085,0.9316,0.3211,-1.30077672,-0.657639205,-1.389540553,-0.256598592,-1.75573051,0.287475586
6.27,0.2085,0.9316,0.3211,-1.903556943,0.242814869,-1.353199244,-0.256598592,-1.75573051,0.287475586
6.27,0.2859,0.9846,0.3101,-1.903556943,0.242814869,-1.353199244,-0.256598592,-1.75573051,0.287475586
6.27,0.3417,0.9455,0.3321,-1.903556943,0.242814869,-1.353199244,-0.256598592,-1.75573051,0.287475586
6.271,0.4636,0.9644,0.4504,-1.903556943,0.242814869,-1.353199244,-0.256598592,-1.75573051,0.287475586
6.271,0.5941,0.9433,0.3399,-1.903556943,0.242814869,-1.353199244,-0.256598592,-1.75573051,0.287475586
6.271,0.5941,0.9433,0.3399,-1.903556943,0.242814869,-1.353199244,-0.244886607,-1.692911863,0.362006307
6.271,0.5941,0.9433,0.3399,-1.903556943,0.242814869,-1.353199244,-0.256598592,-1.637546182,0.41204834
6.271,0.5941,0.9433,0.3399,-1.903556943,0.242814869,-1.353199244,-0.282151967,-1.626898885,0.448248982
6.271,0.5941,0.9433,0.3399,-1.903556943,0.242814869,-1.353199244,-0.326870382,-1.687588215,0.500420451
6.271,0.5941,0.9433,0.3399,-1.903556943,0.242814869,-1.353199244,-0.304511189,-1.768507242,0.610087097
6.272,0.5941,0.9433,0.3399,-1.903556943,0.242814869,-1.353199244,-0.215074331,-1.840908527,0.752760172
6.272,0.5941,0.9433,0.3399,-1.903556943,0.242814869,-1.353199244,-0.17567952,-1.853685141,0.816643596
6.272,0.5941,0.9433,0.3399,-1.903556943,0.242814869,-1.353199244,-0.167161733,-1.725918293,0.7772488
6.272,0.5941,0.9433,0.3399,-1.903556943,0.242814869,-1.353199244,-0.167161733,-1.725918293,0.7772488
6.272,0.5941,0.9433,0.3399,-0.689475656,0.532287776,-1.118869305,-0.167161733,-1.725918293,0.7772488
6.272,0.5941,0.9433,0.3399,-0.689475656,0.532287776,-1.118869305,-0.167161733,-1.725918293,0.7772488
6.298,0.7183,0.8906,0.359,-0.689475656,0.532287776,-1.118869305,-0.167161733,-1.725918293,0.7772488
6.298,0.73,0.8637,0.4658,-0.689475656,0.532287776,-1.118869305,-0.167161733,-1.725918293,0.7772488
6.298,0.6577,0.806,0.5071,-0.689475656,0.532287776,-1.118869305,-0.167161733,-1.725918293,0.7772488
6.298,0.62,0.8346,0.4898,-0.689475656,0.532287776,-1.118869305,-0.167161733,-1.725918293,0.7772488
6.298,0.62,0.8346,0.4898,-0.689475656,0.532287776,-1.118869305,-0.158643931,-1.575792074,0.676100016
6.298,0.62,0.8346,0.4898,-0.689475656,0.532287776,-1.118869305,-0.141608343,-1.491678834,0.565368652
6.299,0.62,0.8346,0.4898,-0.689475656,0.532287776,-1.118869305,-0.090501577,-1.426730752,0.48232016
6.299,0.62,0.8346,0.4898,-0.689475656,0.532287776,-1.118869305,-0.056430392,-1.390530109,0.407789439
